Subject,Trial,Block,Block_type,Foil_contrast,Target_contrast,Target_to_foil_contrast,Max_illuminance,Angle,Fixation_time,Placeholder_time,Prime_time,Target_time,Mask_time,Feedback_time,Prime_duration,Prime_rotation,Prime_type,Target_rotation,Correct_answer,Choice_rotation,Choice_display,RT,Choice,Accuracy,Choice_label,Prime_rotation_label,Target_rotation_label,Choice_rotation_label,Prime_type_label,Correct_answer_label,Onscreen_choices_labels,Block_type_label,Experiment
4,1,1,-2,5.000000e-02,2.500000e-01,5,76,55,2.072039e-02,3.999752e-01,9.994331e-02,2.831026e-01,7.546274e-06,4.000000e-01,100,2,1,0,0,2,3,2.021509e+00,1,0,Right,Vertical,Left,Vertical,Neither,Left,None,Guided practice,C
4,1,1,-2,5.000000e-02,2.500000e-01,5,76,35,1.670255e-02,4.000525e-01,9.998104e-02,2.833345e-01,7.848023e-06,4.000000e-01,100,2,1,0,0,2,3,8.574758e-01,0,1,Left,Vertical,Left,Vertical,Neither,Left,None,Guided practice,C
4,1,1,-2,5.000000e-02,2.500000e-01,5,76,50,1.836208e-02,4.000609e-01,9.998557e-02,2.833969e-01,7.546041e-06,4.000000e-01,100,2,1,1,1,2,3,6.087698e-01,1,1,Right,Vertical,Right,Vertical,Neither,Right,None,Guided practice,C
4,1,1,-2,5.000000e-02,2.500000e-01,5,76,35,1.833341e-02,4.000727e-01,1.000145e-01,2.833532e-01,7.244293e-06,4.000000e-01,100,2,1,1,1,2,3,3.753975e-01,0,0,Left,Vertical,Right,Vertical,Neither,Right,None,Guided practice,C
4,1,1,-2,5.000000e-02,2.500000e-01,5,76,45,1.880700e-02,4.000712e-01,1.000127e-01,2.833269e-01,7.546041e-06,4.000000e-01,100,2,1,1,1,2,3,5.171260e-01,1,1,Right,Vertical,Right,Vertical,Neither,Right,None,Guided practice,C
4,1,2,-1,5.000000e-02,2.500000e-01,5,76,50,3.164917e-01,3.000150e-01,9.998074e-02,8.339199e-02,7.244293e-06,4.000000e-01,100,2,1,0,0,2,3,6.501035e-01,0,1,Left,Vertical,Left,Vertical,Neither,Left,None,Exclusion practice,C
4,1,2,-1,5.000000e-02,2.500000e-01,5,76,40,3.185274e-01,3.000675e-01,1.000127e-01,8.332498e-02,7.244293e-06,4.000000e-01,100,2,1,1,1,2,3,3.754525e-01,1,1,Right,Vertical,Right,Vertical,Neither,Right,None,Exclusion practice,C
4,1,2,-1,5.000000e-02,2.500000e-01,5,76,55,3.106972e-01,3.000273e-01,1.000248e-01,8.331442e-02,7.244293e-06,4.000000e-01,100,2,1,0,0,2,3,4.170901e-01,0,1,Left,Vertical,Left,Vertical,Neither,Left,None,Exclusion practice,C
4,1,2,-1,5.000000e-02,2.500000e-01,5,76,40,3.189276e-01,3.000373e-01,1.000109e-01,8.333736e-02,7.848023e-06,4.000000e-01,100,2,1,1,1,2,3,2.670735e-01,1,1,Right,Vertical,Right,Vertical,Neither,Right,None,Exclusion practice,C
4,1,2,-1,5.000000e-02,2.500000e-01,5,76,40,3.108303e-01,2.999836e-01,1.000402e-01,8.331412e-02,7.546274e-06,4.000000e-01,100,2,1,1,1,2,3,3.921429e-01,1,1,Right,Vertical,Right,Vertical,Neither,Right,None,Exclusion practice,C
4,1,2,-1,5.000000e-02,2.500000e-01,5,76,40,3.107682e-01,3.000002e-01,1.000438e-01,8.333706e-02,6.942544e-06,4.000000e-01,100,2,1,1,1,2,3,3.671448e-01,1,1,Right,Vertical,Right,Vertical,Neither,Right,None,Exclusion practice,C
4,1,2,-1,5.000000e-02,2.500000e-01,5,76,40,3.189312e-01,3.000246e-01,1.000121e-01,8.333223e-02,7.244293e-06,4.000000e-01,100,2,1,0,0,2,3,3.004050e-01,0,1,Left,Vertical,Left,Vertical,Neither,Left,None,Exclusion practice,C
4,1,2,-1,5.000000e-02,2.500000e-01,5,76,40,3.107730e-01,3.000077e-01,9.999282e-02,8.334128e-02,7.848023e-06,4.000000e-01,100,2,1,0,0,2,3,4.338104e-01,0,1,Left,Vertical,Left,Vertical,Neither,Left,None,Exclusion practice,C
4,1,2,-1,5.000000e-02,2.500000e-01,5,76,35,3.106873e-01,2.999941e-01,1.000417e-01,8.334671e-02,7.546041e-06,4.000000e-01,100,2,1,1,1,2,3,2.754231e-01,1,1,Right,Vertical,Right,Vertical,Neither,Right,None,Exclusion practice,C
4,1,2,-1,5.000000e-02,2.500000e-01,5,76,55,3.109360e-01,2.999314e-01,1.000550e-01,8.333011e-02,7.244060e-06,4.000000e-01,100,2,1,0,0,2,3,3.170855e-01,1,0,Right,Vertical,Left,Vertical,Neither,Left,None,Exclusion practice,C
4,1,2,-1,5.000000e-02,2.500000e-01,5,76,55,3.188117e-01,3.000358e-01,1.000139e-01,8.331261e-02,9.055249e-06,4.000000e-01,100,2,1,0,0,2,3,2.753893e-01,0,1,Left,Vertical,Left,Vertical,Neither,Left,None,Exclusion practice,C
4,1,2,-1,5.000000e-02,2.500000e-01,5,76,55,3.107854e-01,3.000080e-01,1.000206e-01,8.333253e-02,7.244293e-06,4.000000e-01,100,2,1,0,0,2,3,2.004698e-01,1,0,Right,Vertical,Left,Vertical,Neither,Left,None,Exclusion practice,C
4,1,2,-1,5.000000e-02,2.500000e-01,5,76,50,3.107815e-01,3.000337e-01,1.000124e-01,8.333645e-02,7.244293e-06,4.000000e-01,100,2,1,0,0,2,3,3.253922e-01,1,0,Right,Vertical,Left,Vertical,Neither,Left,None,Exclusion practice,C
4,1,2,-1,5.000000e-02,2.500000e-01,5,76,45,3.108310e-01,2.999667e-01,1.000115e-01,8.335185e-02,7.244293e-06,4.000000e-01,100,2,1,0,0,2,3,3.504483e-01,0,1,Left,Vertical,Left,Vertical,Neither,Left,None,Exclusion practice,C
4,1,2,-1,5.000000e-02,2.500000e-01,5,76,35,3.189726e-01,3.000240e-01,1.000139e-01,8.335336e-02,7.244060e-06,4.000000e-01,100,2,1,0,0,2,3,2.587170e-01,1,0,Right,Vertical,Left,Vertical,Neither,Left,None,Exclusion practice,C
4,1,2,-1,5.000000e-02,2.500000e-01,5,76,40,3.107479e-01,3.000433e-01,9.998225e-02,8.337358e-02,7.244293e-06,4.000000e-01,100,2,1,0,0,2,3,3.920844e-01,0,1,Left,Vertical,Left,Vertical,Neither,Left,None,Exclusion practice,C
4,1,2,-1,5.000000e-02,2.500000e-01,5,76,55,3.107516e-01,3.000258e-01,1.000115e-01,8.330083e-02,7.244293e-06,4.000000e-01,100,2,1,1,1,2,3,2.671191e-01,1,1,Right,Vertical,Right,Vertical,Neither,Right,None,Exclusion practice,C
4,1,2,-1,5.000000e-02,2.500000e-01,5,76,40,3.189856e-01,2.999923e-01,1.000438e-01,8.333766e-02,7.244293e-06,4.000000e-01,100,2,1,1,1,2,3,3.337581e-01,1,1,Right,Vertical,Right,Vertical,Neither,Right,None,Exclusion practice,C
4,1,2,-1,5.000000e-02,2.500000e-01,5,76,40,3.107648e-01,3.000361e-01,1.000046e-01,8.331261e-02,7.546041e-06,4.000000e-01,100,2,1,0,0,2,3,3.004554e-01,0,1,Left,Vertical,Left,Vertical,Neither,Left,None,Exclusion practice,C
4,1,2,-1,5.000000e-02,2.500000e-01,5,76,55,3.109469e-01,3.000252e-01,1.000133e-01,8.333645e-02,7.244293e-06,4.000000e-01,100,2,1,1,1,2,3,2.753751e-01,1,1,Right,Vertical,Right,Vertical,Neither,Right,None,Exclusion practice,C
4,1,2,-1,5.000000e-02,2.500000e-01,5,76,35,3.107461e-01,3.000234e-01,1.000194e-01,8.329721e-02,7.546274e-06,4.000000e-01,100,2,1,0,0,2,3,3.087419e-01,0,1,Left,Vertical,Left,Vertical,Neither,Left,None,Exclusion practice,C
4,1,2,-1,5.000000e-02,2.500000e-01,5,76,40,3.108059e-01,3.000243e-01,1.000133e-01,8.334490e-02,6.942311e-06,4.000000e-01,100,2,1,1,1,2,3,2.420718e-01,1,1,Right,Vertical,Right,Vertical,Neither,Right,None,Exclusion practice,C
4,1,2,-1,5.000000e-02,2.500000e-01,5,76,50,3.107241e-01,3.000358e-01,1.000115e-01,8.328333e-02,7.848023e-06,4.000000e-01,100,2,1,0,0,2,3,3.087860e-01,0,1,Left,Vertical,Left,Vertical,Neither,Left,None,Exclusion practice,C
4,1,2,-1,5.000000e-02,2.500000e-01,5,76,50,3.107935e-01,3.000234e-01,1.000124e-01,8.333615e-02,7.546041e-06,4.000000e-01,100,2,1,1,1,2,3,2.921236e-01,1,1,Right,Vertical,Right,Vertical,Neither,Right,None,Exclusion practice,C
4,1,2,-1,5.000000e-02,2.500000e-01,5,76,45,3.107461e-01,2.999938e-01,1.000118e-01,8.335879e-02,7.244060e-06,4.000000e-01,100,2,1,1,1,2,3,3.087512e-01,1,1,Right,Vertical,Right,Vertical,Neither,Right,None,Exclusion practice,C
4,1,3,0,5.000000e-02,1.000000e-01,2,76,50,3.153988e-01,3.000192e-01,9.994543e-02,8.305544e-02,7.244293e-06,4.000000e-01,100,2,1,1,1,2,3,3.587517e-01,1,1,Right,Vertical,Right,Vertical,Neither,Right,None,Final training,C
4,1,3,0,5.000000e-02,1.000000e-01,2,76,35,3.107993e-01,3.000249e-01,1.000130e-01,8.330566e-02,7.546274e-06,4.000000e-01,100,2,1,0,0,2,3,2.920768e-01,0,1,Left,Vertical,Left,Vertical,Neither,Left,None,Final training,C
4,1,3,0,5.000000e-02,1.000000e-01,2,76,35,3.107501e-01,3.000107e-01,1.000302e-01,8.344844e-02,9.055482e-06,4.000000e-01,100,2,1,0,0,2,3,2.086842e-01,1,0,Right,Vertical,Left,Vertical,Neither,Left,None,Final training,C
4,1,3,0,5.000000e-02,1.000000e-01,2,76,55,3.108699e-01,3.000246e-01,1.000115e-01,8.333857e-02,7.546041e-06,4.000000e-01,100,2,1,0,0,2,3,2.253801e-01,1,0,Right,Vertical,Left,Vertical,Neither,Left,None,Final training,C
4,1,3,0,5.000000e-02,1.000000e-01,2,76,50,3.108228e-01,3.000129e-01,1.000239e-01,8.331080e-02,7.546041e-06,4.000000e-01,100,2,1,0,0,2,3,2.254160e-01,0,1,Left,Vertical,Left,Vertical,Neither,Left,None,Final training,C
4,1,3,0,5.000000e-02,1.000000e-01,2,76,50,3.189901e-01,2.999947e-01,1.000948e-01,8.328363e-02,7.244293e-06,4.000000e-01,100,2,1,0,0,2,3,2.337786e-01,1,0,Right,Vertical,Left,Vertical,Neither,Left,None,Final training,C
4,1,3,0,5.000000e-02,1.000000e-01,2,76,50,3.106942e-01,3.000110e-01,1.000269e-01,8.333826e-02,7.244293e-06,4.000000e-01,100,2,1,1,1,2,3,2.504039e-01,1,1,Right,Vertical,Right,Vertical,Neither,Right,None,Final training,C
4,1,3,0,5.000000e-02,1.000000e-01,2,76,50,3.108968e-01,3.000427e-01,1.000139e-01,8.330265e-02,7.546274e-06,4.000000e-01,100,2,1,0,0,2,3,2.670838e-01,0,1,Left,Vertical,Left,Vertical,Neither,Left,None,Final training,C
4,1,3,0,5.000000e-02,1.000000e-01,2,76,55,3.107827e-01,3.000497e-01,1.000019e-01,8.331563e-02,7.244293e-06,4.000000e-01,100,2,1,0,0,2,3,3.754319e-01,0,1,Left,Vertical,Left,Vertical,Neither,Left,None,Final training,C
4,1,3,0,5.000000e-02,1.000000e-01,2,76,50,3.106079e-01,3.000630e-01,1.000112e-01,8.329963e-02,7.546274e-06,4.000000e-01,100,2,1,1,1,2,3,2.087853e-01,1,1,Right,Vertical,Right,Vertical,Neither,Right,None,Final training,C
4,1,3,0,5.000000e-02,1.000000e-01,2,76,40,3.110474e-01,3.000135e-01,9.995327e-02,8.333736e-02,7.244293e-06,4.000000e-01,100,2,1,0,0,2,3,2.588132e-01,0,1,Left,Vertical,Left,Vertical,Neither,Left,None,Final training,C
4,1,3,0,5.000000e-02,1.000000e-01,2,76,50,3.106945e-01,3.000207e-01,1.000568e-01,8.332800e-02,6.942311e-06,4.000000e-01,100,2,1,1,1,2,3,2.087479e-01,1,1,Right,Vertical,Right,Vertical,Neither,Right,None,Final training,C
4,1,3,0,5.000000e-02,1.000000e-01,2,76,55,3.189433e-01,2.999308e-01,1.000227e-01,8.336784e-02,6.942544e-06,4.000000e-01,100,2,1,1,1,2,3,2.420669e-01,0,0,Left,Vertical,Right,Vertical,Neither,Right,None,Final training,C
4,1,3,0,5.000000e-02,1.000000e-01,2,76,55,3.108503e-01,3.000379e-01,1.000118e-01,8.333826e-02,7.546274e-06,4.000000e-01,100,2,1,1,1,2,3,1.837183e-01,0,0,Left,Vertical,Right,Vertical,Neither,Right,None,Final training,C
4,1,3,0,5.000000e-02,1.000000e-01,2,76,40,3.108747e-01,3.000340e-01,1.000390e-01,8.333102e-02,7.546041e-06,4.000000e-01,100,2,1,0,0,2,3,3.087531e-01,0,1,Left,Vertical,Left,Vertical,Neither,Left,None,Final training,C
4,1,3,0,5.000000e-02,1.000000e-01,2,76,45,3.108128e-01,3.000313e-01,1.000369e-01,8.330687e-02,7.244293e-06,4.000000e-01,100,2,1,1,1,2,3,1.753974e-01,1,1,Right,Vertical,Right,Vertical,Neither,Right,None,Final training,C
4,1,3,0,5.000000e-02,1.000000e-01,2,76,50,3.109517e-01,3.000252e-01,1.000124e-01,8.332619e-02,6.942311e-06,4.000000e-01,100,2,1,1,1,2,3,2.754111e-01,0,0,Left,Vertical,Right,Vertical,Neither,Right,None,Final training,C
4,1,3,0,5.000000e-02,1.000000e-01,2,76,35,3.106474e-01,3.000560e-01,1.000462e-01,8.331291e-02,7.244293e-06,4.000000e-01,100,2,1,0,0,2,3,1.671115e-01,0,1,Left,Vertical,Left,Vertical,Neither,Left,None,Final training,C
4,1,3,0,5.000000e-02,1.000000e-01,2,76,40,3.107365e-01,3.000587e-01,9.998648e-02,8.333796e-02,7.244060e-06,4.000000e-01,100,2,1,0,0,2,3,1.504376e-01,1,0,Right,Vertical,Left,Vertical,Neither,Left,None,Final training,C
4,1,3,0,5.000000e-02,1.000000e-01,2,76,40,3.189388e-01,3.000726e-01,1.000155e-01,8.332559e-02,7.244293e-06,4.000000e-01,100,2,1,0,0,2,3,2.004109e-01,0,1,Left,Vertical,Left,Vertical,Neither,Left,None,Final training,C
4,1,3,0,5.000000e-02,7.500000e-02,1.500000e+00,76,50,3.107956e-01,3.000258e-01,1.000028e-01,8.334641e-02,7.244060e-06,4.000000e-01,100,2,1,0,0,2,3,1.087460e-01,1,0,Right,Vertical,Left,Vertical,Neither,Left,None,Final training,C
4,1,3,0,5.000000e-02,7.500000e-02,1.500000e+00,76,40,3.110033e-01,3.000222e-01,1.000046e-01,8.330355e-02,7.244293e-06,4.000000e-01,100,2,1,1,1,2,3,1.754394e-01,0,0,Left,Vertical,Right,Vertical,Neither,Right,None,Final training,C
4,1,3,0,5.000000e-02,7.500000e-02,1.500000e+00,76,45,3.107787e-01,3.000252e-01,1.000142e-01,8.328242e-02,7.244293e-06,4.000000e-01,100,2,1,0,0,2,3,1.754454e-01,0,1,Left,Vertical,Left,Vertical,Neither,Left,None,Final training,C
4,1,3,0,5.000000e-02,7.500000e-02,1.500000e+00,76,55,3.109620e-01,3.000162e-01,9.995871e-02,8.338686e-02,7.244293e-06,4.000000e-01,100,2,1,0,0,2,3,2.087494e-01,0,1,Left,Vertical,Left,Vertical,Neither,Left,None,Final training,C
4,1,3,0,5.000000e-02,7.500000e-02,1.500000e+00,76,40,3.107621e-01,3.000141e-01,1.001042e-01,8.326431e-02,7.244293e-06,4.000000e-01,100,2,1,0,0,2,3,1.337320e-01,1,0,Right,Vertical,Left,Vertical,Neither,Left,None,Final training,C
4,1,3,0,5.000000e-02,7.500000e-02,1.500000e+00,76,50,3.107431e-01,3.000189e-01,9.994875e-02,8.339320e-02,7.244293e-06,4.000000e-01,100,2,1,0,0,2,3,2.254558e-01,0,1,Left,Vertical,Left,Vertical,Neither,Left,None,Final training,C
4,1,3,0,5.000000e-02,7.500000e-02,1.500000e+00,76,50,3.107830e-01,3.000455e-01,1.000318e-01,8.332740e-02,7.244293e-06,4.000000e-01,100,2,1,1,1,2,3,2.754053e-01,1,1,Right,Vertical,Right,Vertical,Neither,Right,None,Final training,C
4,1,3,0,5.000000e-02,7.500000e-02,1.500000e+00,76,35,3.104147e-01,3.000231e-01,1.000149e-01,8.333675e-02,7.244293e-06,4.000000e-01,100,2,1,0,0,2,3,2.004146e-01,0,1,Left,Vertical,Left,Vertical,Neither,Left,None,Final training,C
4,1,3,0,5.000000e-02,7.500000e-02,1.500000e+00,76,40,3.108497e-01,3.000225e-01,1.000145e-01,8.332740e-02,6.942311e-06,4.000000e-01,100,2,1,0,0,2,3,2.170742e-01,1,0,Right,Vertical,Left,Vertical,Neither,Left,None,Final training,C
4,1,3,0,5.000000e-02,7.500000e-02,1.500000e+00,76,45,3.109650e-01,2.999226e-01,1.000580e-01,8.333555e-02,7.244293e-06,4.000000e-01,100,2,1,1,1,2,3,2.920605e-01,1,1,Right,Vertical,Right,Vertical,Neither,Right,None,Final training,C
4,1,3,0,5.000000e-02,7.500000e-02,1.500000e+00,76,45,3.108041e-01,2.999618e-01,1.000245e-01,8.334400e-02,7.546041e-06,4.000000e-01,100,2,1,0,0,2,3,3.171156e-01,0,1,Left,Vertical,Left,Vertical,Neither,Left,None,Final training,C
4,1,3,0,5.000000e-02,7.500000e-02,1.500000e+00,76,45,3.107202e-01,3.000261e-01,1.000511e-01,8.332498e-02,7.546041e-06,4.000000e-01,100,2,1,0,0,2,3,2.671215e-01,1,0,Right,Vertical,Left,Vertical,Neither,Left,None,Final training,C
4,1,3,0,5.000000e-02,7.500000e-02,1.500000e+00,76,40,3.106616e-01,2.999990e-01,1.000357e-01,8.332528e-02,7.244293e-06,4.000000e-01,100,2,1,1,1,2,3,3.671004e-01,1,1,Right,Vertical,Right,Vertical,Neither,Right,None,Final training,C
4,1,3,0,5.000000e-02,7.500000e-02,1.500000e+00,76,35,3.189391e-01,3.000219e-01,9.998346e-02,8.334611e-02,6.942311e-06,4.000000e-01,100,2,1,0,0,2,3,2.671070e-01,0,1,Left,Vertical,Left,Vertical,Neither,Left,None,Final training,C
4,1,3,0,5.000000e-02,7.500000e-02,1.500000e+00,76,45,3.108880e-01,3.000234e-01,1.000438e-01,8.333555e-02,6.942311e-06,4.000000e-01,100,2,1,0,0,2,3,2.754210e-01,0,1,Left,Vertical,Left,Vertical,Neither,Left,None,Final training,C
4,1,3,0,5.000000e-02,7.500000e-02,1.500000e+00,76,35,3.108515e-01,3.000409e-01,1.000227e-01,8.333766e-02,7.244293e-06,4.000000e-01,100,2,1,0,0,2,3,2.837471e-01,1,0,Right,Vertical,Left,Vertical,Neither,Left,None,Final training,C
4,1,3,0,5.000000e-02,7.500000e-02,1.500000e+00,76,55,3.107546e-01,3.000255e-01,1.000130e-01,8.332649e-02,7.546041e-06,4.000000e-01,100,2,1,1,1,2,3,2.670977e-01,1,1,Right,Vertical,Right,Vertical,Neither,Right,None,Final training,C
4,1,3,0,5.000000e-02,7.500000e-02,1.500000e+00,76,45,3.109378e-01,2.999471e-01,1.000115e-01,8.333283e-02,8.150004e-06,4.000000e-01,100,2,1,0,0,2,3,2.587653e-01,0,1,Left,Vertical,Left,Vertical,Neither,Left,None,Final training,C
4,1,3,0,5.000000e-02,7.500000e-02,1.500000e+00,76,55,3.108144e-01,3.000117e-01,1.000254e-01,8.334249e-02,7.244293e-06,4.000000e-01,100,2,1,0,0,2,3,2.253879e-01,1,0,Right,Vertical,Left,Vertical,Neither,Left,None,Final training,C
4,1,3,0,5.000000e-02,7.500000e-02,1.500000e+00,76,40,3.189524e-01,3.000074e-01,1.000242e-01,8.332589e-02,7.244293e-06,4.000000e-01,100,2,1,0,0,2,3,2.920943e-01,0,1,Left,Vertical,Left,Vertical,Neither,Left,None,Final training,C
4,1,3,0,5.000000e-02,6.250000e-02,1.250000e+00,76,45,3.106139e-01,3.000201e-01,9.997410e-02,8.333464e-02,7.244293e-06,4.000000e-01,100,2,1,1,1,2,3,2.338275e-01,0,0,Left,Vertical,Right,Vertical,Neither,Right,None,Final training,C
4,1,3,0,5.000000e-02,6.250000e-02,1.250000e+00,76,40,3.107504e-01,3.000276e-01,1.000456e-01,8.334883e-02,7.244293e-06,4.000000e-01,100,2,1,0,0,2,3,2.504129e-01,1,0,Right,Vertical,Left,Vertical,Neither,Left,None,Final training,C
4,1,3,0,5.000000e-02,6.250000e-02,1.250000e+00,76,55,3.107024e-01,3.000352e-01,1.000115e-01,8.327367e-02,7.546041e-06,4.000000e-01,100,2,1,0,0,2,3,2.754717e-01,0,1,Left,Vertical,Left,Vertical,Neither,Left,None,Final training,C
4,1,3,0,5.000000e-02,6.250000e-02,1.250000e+00,76,55,3.189343e-01,3.000630e-01,1.000109e-01,8.333494e-02,7.244293e-06,4.000000e-01,100,2,1,1,1,2,3,3.003971e-01,1,1,Right,Vertical,Right,Vertical,Neither,Right,None,Final training,C
4,1,3,0,5.000000e-02,6.250000e-02,1.250000e+00,76,45,3.107899e-01,3.000560e-01,1.000112e-01,8.334309e-02,7.847790e-06,4.000000e-01,100,2,1,1,1,2,3,2.837353e-01,0,0,Left,Vertical,Right,Vertical,Neither,Right,None,Final training,C
4,1,3,0,5.000000e-02,6.250000e-02,1.250000e+00,76,45,3.107371e-01,3.000521e-01,1.000133e-01,8.334822e-02,7.244293e-06,4.000000e-01,100,2,1,1,1,2,3,2.670587e-01,0,0,Left,Vertical,Right,Vertical,Neither,Right,None,Final training,C
4,1,3,0,5.000000e-02,6.250000e-02,1.250000e+00,76,45,3.107630e-01,3.000240e-01,1.000022e-01,8.331653e-02,7.848023e-06,4.000000e-01,100,2,1,0,0,2,3,4.087700e-01,0,1,Left,Vertical,Left,Vertical,Neither,Left,None,Final training,C
4,1,3,0,5.000000e-02,6.250000e-02,1.250000e+00,76,35,3.188476e-01,3.000865e-01,1.000001e-01,8.331985e-02,7.848023e-06,4.000000e-01,100,2,1,0,0,2,3,3.254185e-01,1,0,Right,Vertical,Left,Vertical,Neither,Left,None,Final training,C
4,1,3,0,5.000000e-02,6.250000e-02,1.250000e+00,76,50,3.106541e-01,3.000379e-01,1.000127e-01,8.332378e-02,7.244060e-06,4.000000e-01,100,2,1,1,1,2,3,3.587916e-01,1,1,Right,Vertical,Right,Vertical,Neither,Right,None,Final training,C
4,1,3,0,5.000000e-02,6.250000e-02,1.250000e+00,76,35,3.108436e-01,2.999890e-01,1.000130e-01,8.333615e-02,7.244293e-06,4.000000e-01,100,2,1,0,0,2,3,3.004635e-01,0,1,Left,Vertical,Left,Vertical,Neither,Left,None,Final training,C
4,1,3,0,5.000000e-02,6.250000e-02,1.250000e+00,76,50,3.104392e-01,3.000645e-01,9.999825e-02,8.332287e-02,6.942311e-06,4.000000e-01,100,2,1,1,1,2,3,3.087585e-01,1,1,Right,Vertical,Right,Vertical,Neither,Right,None,Final training,C
4,1,3,0,5.000000e-02,6.250000e-02,1.250000e+00,76,35,3.189759e-01,2.999446e-01,1.000453e-01,8.335124e-02,7.546041e-06,4.000000e-01,100,2,1,1,1,2,3,3.420872e-01,1,1,Right,Vertical,Right,Vertical,Neither,Right,None,Final training,C
4,1,3,0,5.000000e-02,6.250000e-02,1.250000e+00,76,45,3.108675e-01,3.000231e-01,1.000097e-01,8.333615e-02,7.244293e-06,4.000000e-01,100,2,1,1,1,2,3,3.254622e-01,0,0,Left,Vertical,Right,Vertical,Neither,Right,None,Final training,C
4,1,3,0,5.000000e-02,6.250000e-02,1.250000e+00,76,50,3.188555e-01,3.000283e-01,1.000631e-01,8.327639e-02,6.942544e-06,4.000000e-01,100,2,1,1,1,2,3,3.254185e-01,1,1,Right,Vertical,Right,Vertical,Neither,Right,None,Final training,C
4,1,3,0,5.000000e-02,6.250000e-02,1.250000e+00,76,45,3.107534e-01,3.000533e-01,1.000049e-01,8.333736e-02,7.244293e-06,4.000000e-01,100,2,1,1,1,2,3,3.754338e-01,1,1,Right,Vertical,Right,Vertical,Neither,Right,None,Final training,C
4,1,3,0,5.000000e-02,6.250000e-02,1.250000e+00,76,45,3.189669e-01,2.999788e-01,1.000164e-01,8.333374e-02,7.546041e-06,4.000000e-01,100,2,1,0,0,2,3,4.337911e-01,1,0,Right,Vertical,Left,Vertical,Neither,Left,None,Final training,C
4,1,3,0,5.000000e-02,6.250000e-02,1.250000e+00,76,35,3.189249e-01,3.000361e-01,1.000139e-01,8.335849e-02,7.847790e-06,4.000000e-01,100,2,1,1,1,2,3,3.087205e-01,1,1,Right,Vertical,Right,Vertical,Neither,Right,None,Final training,C
4,1,3,0,5.000000e-02,6.250000e-02,1.250000e+00,76,50,3.107645e-01,3.000575e-01,1.000133e-01,8.333585e-02,7.546041e-06,4.000000e-01,100,2,1,0,0,2,3,3.670802e-01,0,1,Left,Vertical,Left,Vertical,Neither,Left,None,Final training,C
4,1,3,0,5.000000e-02,6.250000e-02,1.250000e+00,76,35,3.188540e-01,3.000599e-01,1.000360e-01,8.330808e-02,7.244060e-06,4.000000e-01,100,2,1,1,1,2,3,2.920904e-01,1,1,Right,Vertical,Right,Vertical,Neither,Right,None,Final training,C
4,1,3,0,5.000000e-02,6.250000e-02,1.250000e+00,76,45,3.109046e-01,3.000198e-01,1.000502e-01,8.331864e-02,6.942544e-06,4.000000e-01,100,2,1,0,0,2,3,4.170925e-01,1,0,Right,Vertical,Left,Vertical,Neither,Left,None,Final training,C
4,1,3,0,5.000000e-02,5.625000e-02,1.125000e+00,76,35,3.108346e-01,2.999679e-01,1.000025e-01,8.333434e-02,7.546041e-06,4.000000e-01,100,2,1,1,1,2,3,3.087383e-01,1,1,Right,Vertical,Right,Vertical,Neither,Right,None,Final training,C
4,1,3,0,5.000000e-02,5.625000e-02,1.125000e+00,76,55,3.108729e-01,2.999658e-01,1.000191e-01,8.331895e-02,7.546041e-06,4.000000e-01,100,2,1,0,0,2,3,4.004627e-01,1,0,Right,Vertical,Left,Vertical,Neither,Left,None,Final training,C
4,1,3,0,5.000000e-02,5.625000e-02,1.125000e+00,76,50,3.190052e-01,3.000243e-01,1.000103e-01,8.332800e-02,7.244293e-06,4.000000e-01,100,2,1,0,0,2,3,3.337527e-01,1,0,Right,Vertical,Left,Vertical,Neither,Left,None,Final training,C
4,1,3,0,5.000000e-02,5.625000e-02,1.125000e+00,76,50,3.106302e-01,3.000711e-01,1.000164e-01,8.335698e-02,7.244293e-06,4.000000e-01,100,2,1,1,1,2,3,3.837354e-01,0,0,Left,Vertical,Right,Vertical,Neither,Right,None,Final training,C
4,1,3,0,5.000000e-02,5.625000e-02,1.125000e+00,76,45,3.105810e-01,3.000343e-01,1.000130e-01,8.333555e-02,7.244293e-06,4.000000e-01,100,2,1,0,0,2,3,2.921879e-01,1,0,Right,Vertical,Left,Vertical,Neither,Left,None,Final training,C
4,1,3,0,5.000000e-02,5.625000e-02,1.125000e+00,76,35,3.107790e-01,2.999926e-01,1.000423e-01,8.333736e-02,7.244293e-06,4.000000e-01,100,2,1,0,0,2,3,4.253950e-01,1,0,Right,Vertical,Left,Vertical,Neither,Left,None,Final training,C
4,1,3,0,5.000000e-02,5.625000e-02,1.125000e+00,76,50,3.105225e-01,3.000382e-01,1.000302e-01,8.331593e-02,7.244060e-06,4.000000e-01,100,2,1,1,1,2,3,3.170864e-01,1,1,Right,Vertical,Right,Vertical,Neither,Right,None,Final training,C
4,1,3,0,5.000000e-02,5.625000e-02,1.125000e+00,76,40,3.108684e-01,2.999788e-01,1.000073e-01,8.333132e-02,7.244293e-06,4.000000e-01,100,2,1,1,1,2,3,3.921312e-01,0,0,Left,Vertical,Right,Vertical,Neither,Right,None,Final training,C
4,1,3,0,5.000000e-02,5.625000e-02,1.125000e+00,76,45,3.188220e-01,3.000264e-01,1.000115e-01,8.335728e-02,6.942311e-06,4.000000e-01,100,2,1,0,0,2,3,3.504278e-01,0,1,Left,Vertical,Left,Vertical,Neither,Left,None,Final training,C
4,1,3,0,5.000000e-02,5.625000e-02,1.125000e+00,76,55,3.190010e-01,3.000171e-01,1.000218e-01,8.328091e-02,7.546274e-06,4.000000e-01,100,2,1,0,0,2,3,4.254762e-01,1,0,Right,Vertical,Left,Vertical,Neither,Left,None,Final training,C
4,1,3,0,5.000000e-02,5.625000e-02,1.125000e+00,76,35,3.107075e-01,3.000781e-01,1.000142e-01,8.330898e-02,7.244293e-06,4.000000e-01,100,2,1,1,1,2,3,3.921185e-01,0,0,Left,Vertical,Right,Vertical,Neither,Right,None,Final training,C
4,1,3,0,5.000000e-02,5.625000e-02,1.125000e+00,76,40,3.107818e-01,3.000264e-01,1.000112e-01,8.331744e-02,7.244293e-06,4.000000e-01,100,2,1,0,0,2,3,5.921120e-01,1,0,Right,Vertical,Left,Vertical,Neither,Left,None,Final training,C
4,1,3,0,5.000000e-02,5.625000e-02,1.125000e+00,76,40,3.187266e-01,3.000183e-01,9.998135e-02,8.335245e-02,8.149771e-06,4.000000e-01,100,2,1,0,0,2,3,4.087724e-01,1,0,Right,Vertical,Left,Vertical,Neither,Left,None,Final training,C
4,1,3,0,5.000000e-02,5.625000e-02,1.125000e+00,76,35,3.106544e-01,3.000575e-01,1.000206e-01,8.332800e-02,7.546041e-06,4.000000e-01,100,2,1,1,1,2,3,2.504039e-01,1,1,Right,Vertical,Right,Vertical,Neither,Right,None,Final training,C
4,1,3,0,5.000000e-02,5.625000e-02,1.125000e+00,76,50,3.108545e-01,3.000258e-01,1.000106e-01,8.327246e-02,7.546041e-06,4.000000e-01,100,2,1,1,1,2,3,4.088253e-01,1,1,Right,Vertical,Right,Vertical,Neither,Right,None,Final training,C
4,1,3,0,5.000000e-02,5.625000e-02,1.125000e+00,76,40,3.108551e-01,3.000258e-01,1.000127e-01,8.333675e-02,7.546274e-06,4.000000e-01,100,2,1,0,0,2,3,4.004316e-01,0,1,Left,Vertical,Left,Vertical,Neither,Left,None,Final training,C
4,1,3,0,5.000000e-02,5.625000e-02,1.125000e+00,76,35,3.189077e-01,3.000014e-01,1.000073e-01,8.344542e-02,4.195631e-05,4.000000e-01,100,2,1,1,1,2,3,3.002984e-01,1,1,Right,Vertical,Right,Vertical,Neither,Right,None,Final training,C
4,1,3,0,5.000000e-02,5.625000e-02,1.125000e+00,76,50,3.108035e-01,3.000461e-01,9.999221e-02,8.333283e-02,7.244293e-06,4.000000e-01,100,2,1,1,1,2,3,4.587738e-01,1,1,Right,Vertical,Right,Vertical,Neither,Right,None,Final training,C
4,1,3,0,5.000000e-02,5.625000e-02,1.125000e+00,76,55,3.107036e-01,3.000273e-01,9.997893e-02,8.332860e-02,7.546041e-06,4.000000e-01,100,2,1,1,1,2,3,4.421078e-01,0,0,Left,Vertical,Right,Vertical,Neither,Right,None,Final training,C
4,1,3,0,5.000000e-02,5.625000e-02,1.125000e+00,76,35,3.188739e-01,3.000249e-01,1.000076e-01,8.334219e-02,7.244060e-06,4.000000e-01,100,2,1,0,0,2,3,3.420917e-01,0,1,Left,Vertical,Left,Vertical,Neither,Left,None,Final training,C
4,1,4,1,5.000000e-02,1.000000e-01,2.000000e+00,76,35,3.138904e-01,3.914345e-01,8.297092e-03,8.335547e-02,7.244293e-06,4.000000e-01,8,2,1,0,0,2,3,3.670805e-01,0,1,Left,Vertical,Left,Vertical,Neither,Left,None,Staircase calibration,C
4,1,4,1,5.000000e-02,1.000000e-01,2.000000e+00,76,40,3.150384e-01,2.667001e-01,1.333288e-01,8.335577e-02,7.244293e-06,4.000000e-01,134,2,1,1,1,2,3,2.504301e-01,1,1,Right,Vertical,Right,Vertical,Neither,Right,None,Staircase calibration,C
4,1,4,1,5.000000e-02,1.000000e-01,2.000000e+00,76,50,3.186587e-01,3.666501e-01,3.337581e-02,8.336754e-02,7.546041e-06,4.000000e-01,34,2,1,1,1,2,3,3.254251e-01,1,1,Right,Vertical,Right,Vertical,Neither,Right,None,Staircase calibration,C
4,1,4,1,5.000000e-02,1.000000e-01,2.000000e+00,76,45,3.106504e-01,3.666917e-01,3.339996e-02,8.327578e-02,7.244293e-06,4.000000e-01,34,2,1,1,1,2,3,3.087543e-01,1,1,Right,Vertical,Right,Vertical,Neither,Right,None,Staircase calibration,C
4,1,4,1,5.000000e-02,1.000000e-01,2.000000e+00,76,40,3.188673e-01,2.666763e-01,1.333632e-01,8.333675e-02,7.244293e-06,4.000000e-01,134,2,1,0,0,2,3,2.921163e-01,0,1,Left,Vertical,Left,Vertical,Neither,Left,None,Staircase calibration,C
4,1,4,1,5.000000e-02,1.000000e-01,2.000000e+00,76,55,3.105662e-01,3.917116e-01,8.326371e-03,8.333494e-02,7.244060e-06,4.000000e-01,8,2,1,0,0,2,3,4.255794e-01,0,1,Left,Vertical,Left,Vertical,Neither,Left,None,Staircase calibration,C
4,1,4,1,5.000000e-02,1.000000e-01,2.000000e+00,76,35,3.186777e-01,3.667056e-01,3.333838e-02,8.333645e-02,7.546274e-06,4.000000e-01,34,2,1,0,0,2,3,3.921076e-01,0,1,Left,Vertical,Left,Vertical,Neither,Left,None,Staircase calibration,C
4,1,4,1,5.000000e-02,1.000000e-01,2.000000e+00,76,35,3.105367e-01,3.917201e-01,8.327578e-03,8.333796e-02,7.244293e-06,4.000000e-01,8,2,1,0,0,2,3,2.253746e-01,1,0,Right,Vertical,Left,Vertical,Neither,Left,None,Staircase calibration,C
4,1,4,1,5.000000e-02,1.000000e-01,2.000000e+00,76,50,3.106815e-01,3.917342e-01,8.337237e-03,8.333615e-02,7.546274e-06,4.000000e-01,8,2,1,1,1,2,3,3.170924e-01,1,1,Right,Vertical,Right,Vertical,Neither,Right,None,Staircase calibration,C
4,1,4,1,5.000000e-02,1.000000e-01,2.000000e+00,76,40,3.107153e-01,2.666884e-01,1.333125e-01,8.333977e-02,7.244293e-06,4.000000e-01,134,2,1,0,0,2,3,2.504549e-01,0,1,Left,Vertical,Left,Vertical,Neither,Left,None,Staircase calibration,C
4,1,4,1,5.000000e-02,1.000000e-01,2.000000e+00,76,55,3.183713e-01,2.666672e-01,1.333478e-01,8.333645e-02,7.244293e-06,4.000000e-01,134,2,1,0,0,2,3,3.254453e-01,1,0,Right,Vertical,Left,Vertical,Neither,Left,None,Staircase calibration,C
4,1,4,1,5.000000e-02,1.000000e-01,2.000000e+00,76,45,3.106535e-01,3.666779e-01,3.334110e-02,8.334521e-02,7.244293e-06,4.000000e-01,34,2,1,0,0,2,3,2.920774e-01,0,1,Left,Vertical,Left,Vertical,Neither,Left,None,Staircase calibration,C
4,1,4,1,5.000000e-02,1.000000e-01,2.000000e+00,76,40,3.106933e-01,3.917004e-01,8.339048e-03,8.332649e-02,7.847790e-06,4.000000e-01,8,2,1,1,1,2,3,2.254580e-01,1,1,Right,Vertical,Right,Vertical,Neither,Right,None,Staircase calibration,C
4,1,4,1,5.000000e-02,1.000000e-01,2.000000e+00,76,40,3.103691e-01,2.666742e-01,1.333484e-01,8.340557e-02,7.244293e-06,4.000000e-01,134,2,1,0,0,2,3,2.503800e-01,0,1,Left,Vertical,Left,Vertical,Neither,Left,None,Staircase calibration,C
4,1,4,1,5.000000e-02,1.000000e-01,2.000000e+00,76,55,3.108104e-01,3.917264e-01,8.353838e-03,8.331864e-02,7.244060e-06,4.000000e-01,8,2,1,0,0,2,3,2.754376e-01,1,0,Right,Vertical,Left,Vertical,Neither,Left,None,Staircase calibration,C
4,1,4,1,5.000000e-02,1.000000e-01,2.000000e+00,76,40,3.108159e-01,3.666993e-01,3.332691e-02,8.333917e-02,7.546041e-06,4.000000e-01,34,2,1,1,1,2,3,2.503948e-01,1,1,Right,Vertical,Right,Vertical,Neither,Right,None,Staircase calibration,C
4,1,4,1,5.000000e-02,1.000000e-01,2.000000e+00,76,50,3.189324e-01,3.667108e-01,3.332571e-02,8.332498e-02,7.546041e-06,4.000000e-01,34,2,1,1,1,2,3,3.588030e-01,1,1,Right,Vertical,Right,Vertical,Neither,Right,None,Staircase calibration,C
4,1,4,1,5.000000e-02,1.000000e-01,2.000000e+00,76,45,3.108177e-01,3.916672e-01,8.335426e-03,8.334883e-02,8.149771e-06,4.000000e-01,8,2,1,1,1,2,3,3.254136e-01,1,1,Right,Vertical,Right,Vertical,Neither,Right,None,Staircase calibration,C
4,1,4,1,5.000000e-02,1.000000e-01,2.000000e+00,76,50,3.107350e-01,3.666990e-01,3.332571e-02,8.336815e-02,7.244293e-06,4.000000e-01,34,2,1,1,1,2,3,2.587643e-01,1,1,Right,Vertical,Right,Vertical,Neither,Right,None,Staircase calibration,C
4,1,4,1,5.000000e-02,1.000000e-01,2.000000e+00,76,55,3.106338e-01,2.666980e-01,1.333055e-01,8.331381e-02,7.546041e-06,4.000000e-01,134,2,1,0,0,2,3,3.921490e-01,0,1,Left,Vertical,Left,Vertical,Neither,Left,None,Staircase calibration,C
4,1,4,1,5.000000e-02,1.000000e-01,2.000000e+00,76,45,3.106281e-01,3.667156e-01,3.334955e-02,8.334641e-02,1.690327e-05,4.000000e-01,34,2,1,0,0,2,3,3.170592e-01,0,1,Left,Vertical,Left,Vertical,Neither,Left,None,Staircase calibration,C
4,1,4,1,5.000000e-02,1.000000e-01,2.000000e+00,76,55,3.104805e-01,3.667086e-01,3.330458e-02,8.332649e-02,7.546041e-06,4.000000e-01,34,2,1,1,1,2,3,2.504488e-01,1,1,Right,Vertical,Right,Vertical,Neither,Right,None,Staircase calibration,C
4,1,4,1,5.000000e-02,1.000000e-01,2.000000e+00,76,50,3.107114e-01,3.916775e-01,8.336030e-03,8.337026e-02,7.244060e-06,4.000000e-01,8,2,1,1,1,2,3,3.587910e-01,1,1,Right,Vertical,Right,Vertical,Neither,Right,None,Staircase calibration,C
4,1,4,1,5.000000e-02,1.000000e-01,2.000000e+00,76,45,3.106320e-01,3.916835e-01,8.337237e-03,8.333525e-02,7.244293e-06,4.000000e-01,8,2,1,1,1,2,3,3.004044e-01,1,1,Right,Vertical,Right,Vertical,Neither,Right,None,Staircase calibration,C
4,1,4,1,5.000000e-02,1.000000e-01,2.000000e+00,76,35,3.107585e-01,3.667295e-01,3.331937e-02,8.333585e-02,7.244293e-06,4.000000e-01,34,2,1,0,0,2,3,2.587212e-01,0,1,Left,Vertical,Left,Vertical,Neither,Left,None,Staircase calibration,C
4,1,4,1,5.000000e-02,1.000000e-01,2.000000e+00,76,40,3.107326e-01,2.667167e-01,1.332594e-01,8.337660e-02,7.244060e-06,4.000000e-01,134,2,1,0,0,2,3,3.338040e-01,0,1,Left,Vertical,Left,Vertical,Neither,Left,None,Staircase calibration,C
4,1,4,1,5.000000e-02,1.000000e-01,2.000000e+00,76,55,3.107938e-01,3.667047e-01,3.335438e-02,8.331864e-02,7.244293e-06,4.000000e-01,34,2,1,0,0,2,3,2.421101e-01,1,0,Right,Vertical,Left,Vertical,Neither,Left,None,Staircase calibration,C
4,1,4,1,5.000000e-02,1.000000e-01,2.000000e+00,76,55,3.107075e-01,2.666558e-01,1.333264e-01,8.336000e-02,7.244293e-06,4.000000e-01,134,2,1,0,0,2,3,3.337862e-01,1,0,Right,Vertical,Left,Vertical,Neither,Left,None,Staircase calibration,C
4,1,4,1,5.000000e-02,1.000000e-01,2.000000e+00,76,50,3.188905e-01,2.667530e-01,1.333258e-01,8.333736e-02,7.244293e-06,4.000000e-01,134,2,1,1,1,2,3,2.420866e-01,1,1,Right,Vertical,Right,Vertical,Neither,Right,None,Staircase calibration,C
4,1,4,1,5.000000e-02,1.000000e-01,2.000000e+00,76,35,3.107878e-01,2.666636e-01,1.333723e-01,8.333706e-02,7.244293e-06,4.000000e-01,134,2,1,0,0,2,3,3.754150e-01,1,0,Right,Vertical,Left,Vertical,Neither,Left,None,Staircase calibration,C
4,1,4,1,5.000000e-02,1.000000e-01,2.000000e+00,76,35,3.107857e-01,2.666153e-01,1.333741e-01,8.332287e-02,7.244060e-06,4.000000e-01,134,2,1,1,1,2,3,3.087428e-01,1,1,Right,Vertical,Right,Vertical,Neither,Right,None,Staircase calibration,C
4,1,4,1,5.000000e-02,1.000000e-01,2.000000e+00,76,55,3.107727e-01,3.916696e-01,8.345085e-03,8.344089e-02,9.055249e-06,4.000000e-01,8,2,1,0,0,2,3,4.836865e-01,0,1,Left,Vertical,Left,Vertical,Neither,Left,None,Staircase calibration,C
4,1,4,1,5.000000e-02,1.000000e-01,2.000000e+00,76,55,3.187393e-01,3.916844e-01,8.347500e-03,8.332227e-02,7.244293e-06,4.000000e-01,8,2,1,1,1,2,3,2.671013e-01,1,1,Right,Vertical,Right,Vertical,Neither,Right,None,Staircase calibration,C
4,1,4,1,5.000000e-02,1.000000e-01,2.000000e+00,76,35,3.188301e-01,3.667123e-01,3.332480e-02,8.330536e-02,6.942311e-06,4.000000e-01,34,2,1,1,1,2,3,2.671420e-01,1,1,Right,Vertical,Right,Vertical,Neither,Right,None,Staircase calibration,C
4,1,4,1,5.000000e-02,1.000000e-01,2.000000e+00,76,35,3.106827e-01,2.666865e-01,1.333575e-01,8.338535e-02,9.658979e-06,4.000000e-01,134,2,1,1,1,2,3,3.420453e-01,1,1,Right,Vertical,Right,Vertical,Neither,Right,None,Staircase calibration,C
4,1,4,1,5.000000e-02,1.000000e-01,2.000000e+00,76,35,3.188491e-01,2.666868e-01,1.333837e-01,8.330114e-02,7.244293e-06,4.000000e-01,134,2,1,0,0,2,3,3.088352e-01,0,1,Left,Vertical,Left,Vertical,Neither,Left,None,Staircase calibration,C
4,1,4,1,5.000000e-02,1.000000e-01,2.000000e+00,76,45,3.106369e-01,2.666893e-01,1.333481e-01,8.333826e-02,7.244060e-06,4.000000e-01,134,2,1,0,0,2,3,3.337442e-01,1,0,Right,Vertical,Left,Vertical,Neither,Left,None,Staircase calibration,C
4,1,4,1,5.000000e-02,1.000000e-01,2.000000e+00,76,35,3.106465e-01,2.667581e-01,1.333077e-01,8.336664e-02,7.244293e-06,4.000000e-01,134,2,1,1,1,2,3,3.337605e-01,1,1,Right,Vertical,Right,Vertical,Neither,Right,None,Staircase calibration,C
4,1,4,1,5.000000e-02,1.000000e-01,2.000000e+00,76,55,3.106924e-01,3.666525e-01,3.334593e-02,8.332076e-02,7.244293e-06,4.000000e-01,34,2,1,1,1,2,3,3.087893e-01,1,1,Right,Vertical,Right,Vertical,Neither,Right,None,Staircase calibration,C
4,1,4,1,5.000000e-02,1.000000e-01,2.000000e+00,76,35,3.106812e-01,3.667548e-01,3.332118e-02,8.332679e-02,7.546041e-06,4.000000e-01,34,2,1,1,1,2,3,3.087814e-01,1,1,Right,Vertical,Right,Vertical,Neither,Right,None,Staircase calibration,C
4,1,4,1,5.000000e-02,1.000000e-01,2.000000e+00,76,40,3.107799e-01,3.666739e-01,3.330669e-02,8.336905e-02,6.942311e-06,4.000000e-01,34,2,1,0,0,2,3,2.920964e-01,0,1,Left,Vertical,Left,Vertical,Neither,Left,None,Staircase calibration,C
4,1,4,1,5.000000e-02,1.000000e-01,2.000000e+00,76,35,3.106221e-01,3.917007e-01,8.337539e-03,8.333947e-02,7.546274e-06,4.000000e-01,8,2,1,1,1,2,3,3.171093e-01,1,1,Right,Vertical,Right,Vertical,Neither,Right,None,Staircase calibration,C
4,1,4,1,5.000000e-02,1.000000e-01,2.000000e+00,76,55,3.107495e-01,3.917261e-01,8.308562e-03,8.333796e-02,7.244293e-06,4.000000e-01,8,2,1,0,0,2,3,3.587889e-01,0,1,Left,Vertical,Left,Vertical,Neither,Left,None,Staircase calibration,C
4,1,4,1,5.000000e-02,1.000000e-01,2.000000e+00,76,50,3.108068e-01,2.666760e-01,1.333735e-01,8.334490e-02,7.244293e-06,4.000000e-01,134,2,1,1,1,2,3,1.753844e-01,1,1,Right,Vertical,Right,Vertical,Neither,Right,None,Staircase calibration,C
4,1,4,1,5.000000e-02,1.000000e-01,2.000000e+00,76,50,3.107760e-01,2.666884e-01,1.333508e-01,8.334370e-02,7.244293e-06,4.000000e-01,134,2,1,0,0,2,3,2.420558e-01,0,1,Left,Vertical,Left,Vertical,Neither,Left,None,Staircase calibration,C
4,1,4,1,5.000000e-02,1.000000e-01,2.000000e+00,76,50,3.106429e-01,3.917122e-01,8.328182e-03,8.333585e-02,7.244293e-06,4.000000e-01,8,2,1,0,0,2,3,2.170697e-01,1,0,Right,Vertical,Left,Vertical,Neither,Left,None,Staircase calibration,C
4,1,4,1,5.000000e-02,1.000000e-01,2.000000e+00,76,35,3.104790e-01,3.667056e-01,3.332299e-02,8.333826e-02,7.546041e-06,4.000000e-01,34,2,1,1,1,2,3,2.671638e-01,1,1,Right,Vertical,Right,Vertical,Neither,Right,None,Staircase calibration,C
4,1,4,1,5.000000e-02,1.000000e-01,2.000000e+00,76,35,3.189922e-01,2.666781e-01,1.333599e-01,8.332649e-02,7.546041e-06,4.000000e-01,134,2,1,1,1,2,3,2.754074e-01,1,1,Right,Vertical,Right,Vertical,Neither,Right,None,Staircase calibration,C
4,1,4,1,5.000000e-02,1.000000e-01,2.000000e+00,76,35,3.107301e-01,3.917478e-01,8.336030e-03,8.331744e-02,7.244293e-06,4.000000e-01,8,2,1,1,1,2,3,3.587626e-01,1,1,Right,Vertical,Right,Vertical,Neither,Right,None,Staircase calibration,C
4,1,4,1,5.000000e-02,1.000000e-01,2.000000e+00,76,50,3.187224e-01,3.917074e-01,8.357461e-03,8.331713e-02,7.244293e-06,4.000000e-01,8,2,1,1,1,2,3,3.671850e-01,1,1,Right,Vertical,Right,Vertical,Neither,Right,None,Staircase calibration,C
4,1,4,1,5.000000e-02,1.000000e-01,2.000000e+00,76,50,3.106326e-01,3.666884e-01,3.336314e-02,8.328061e-02,7.244293e-06,4.000000e-01,34,2,1,0,0,2,3,2.587966e-01,0,1,Left,Vertical,Left,Vertical,Neither,Left,None,Staircase calibration,C
4,1,4,1,5.000000e-02,1.000000e-01,2.000000e+00,76,50,3.188721e-01,3.667162e-01,3.332329e-02,8.335305e-02,6.942544e-06,4.000000e-01,34,2,1,1,1,2,3,2.504500e-01,1,1,Right,Vertical,Right,Vertical,Neither,Right,None,Staircase calibration,C
4,1,4,1,5.000000e-02,1.000000e-01,2.000000e+00,76,50,3.104428e-01,2.666075e-01,1.333608e-01,8.336301e-02,7.546041e-06,4.000000e-01,134,2,1,0,0,2,3,3.171292e-01,1,0,Right,Vertical,Left,Vertical,Neither,Left,None,Staircase calibration,C
4,1,4,1,5.000000e-02,1.000000e-01,2.000000e+00,76,55,3.107839e-01,3.916862e-01,8.336030e-03,8.334038e-02,7.546041e-06,4.000000e-01,8,2,1,1,1,2,3,3.170933e-01,1,1,Right,Vertical,Right,Vertical,Neither,Right,None,Staircase calibration,C
4,1,4,1,5.000000e-02,1.000000e-01,2.000000e+00,76,40,3.106873e-01,3.667177e-01,3.332812e-02,8.328936e-02,7.546041e-06,4.000000e-01,34,2,1,1,1,2,3,3.087974e-01,1,1,Right,Vertical,Right,Vertical,Neither,Right,None,Staircase calibration,C
4,1,4,1,5.000000e-02,1.000000e-01,2.000000e+00,76,55,3.188455e-01,3.916757e-01,8.333917e-03,8.333464e-02,7.244293e-06,4.000000e-01,8,2,1,0,0,2,3,2.670838e-01,0,1,Left,Vertical,Left,Vertical,Neither,Left,None,Staircase calibration,C
4,1,4,1,5.000000e-02,1.000000e-01,2.000000e+00,76,45,3.105988e-01,3.666495e-01,3.333929e-02,8.334973e-02,1.720502e-05,4.000000e-01,34,2,1,0,0,2,3,3.420869e-01,0,1,Left,Vertical,Left,Vertical,Neither,Left,None,Staircase calibration,C
4,1,4,1,5.000000e-02,1.000000e-01,2.000000e+00,76,40,3.107953e-01,3.666347e-01,3.332993e-02,8.335366e-02,7.244293e-06,4.000000e-01,34,2,1,1,1,2,3,2.837537e-01,1,1,Right,Vertical,Right,Vertical,Neither,Right,None,Staircase calibration,C
4,1,4,1,5.000000e-02,1.000000e-01,2.000000e+00,76,55,3.107081e-01,2.666573e-01,1.333255e-01,8.337147e-02,7.847790e-06,4.000000e-01,134,2,1,0,0,2,3,3.337249e-01,1,0,Right,Vertical,Left,Vertical,Neither,Left,None,Staircase calibration,C
4,1,4,1,5.000000e-02,1.000000e-01,2.000000e+00,76,50,3.188736e-01,3.917696e-01,8.334521e-03,8.332136e-02,7.244293e-06,4.000000e-01,8,2,1,0,0,2,3,3.337753e-01,0,1,Left,Vertical,Left,Vertical,Neither,Left,None,Staircase calibration,C
4,1,4,1,5.000000e-02,1.000000e-01,2.000000e+00,76,45,3.105988e-01,2.666407e-01,1.333647e-01,8.333766e-02,6.942311e-06,4.000000e-01,134,2,1,1,1,2,3,2.587511e-01,1,1,Right,Vertical,Right,Vertical,Neither,Right,None,Staircase calibration,C
4,1,4,1,5.000000e-02,1.000000e-01,2.000000e+00,76,40,3.189174e-01,2.667294e-01,1.333490e-01,8.332981e-02,7.848023e-06,4.000000e-01,134,2,1,1,1,2,3,3.004499e-01,1,1,Right,Vertical,Right,Vertical,Neither,Right,None,Staircase calibration,C
4,1,4,1,5.000000e-02,1.000000e-01,2.000000e+00,76,40,3.107199e-01,2.666712e-01,1.333620e-01,8.335547e-02,7.244293e-06,4.000000e-01,134,2,1,0,0,2,3,3.754304e-01,0,1,Left,Vertical,Left,Vertical,Neither,Left,None,Staircase calibration,C
4,1,4,1,5.000000e-02,1.000000e-01,2.000000e+00,76,40,3.107036e-01,2.666772e-01,1.333596e-01,8.334611e-02,7.244293e-06,4.000000e-01,134,2,1,0,0,2,3,4.754423e-01,0,1,Left,Vertical,Left,Vertical,Neither,Left,None,Staircase calibration,C
4,1,4,1,5.000000e-02,1.000000e-01,2.000000e+00,76,40,3.107123e-01,3.666751e-01,3.334774e-02,8.331925e-02,7.546041e-06,4.000000e-01,34,2,1,0,0,2,3,3.754202e-01,0,1,Left,Vertical,Left,Vertical,Neither,Left,None,Staircase calibration,C
4,1,4,1,5.000000e-02,1.000000e-01,2.000000e+00,76,50,3.106746e-01,2.666543e-01,1.333505e-01,8.333917e-02,7.546041e-06,4.000000e-01,134,2,1,1,1,2,3,2.754424e-01,1,1,Right,Vertical,Right,Vertical,Neither,Right,None,Staircase calibration,C
4,1,4,1,5.000000e-02,1.000000e-01,2.000000e+00,76,45,3.107316e-01,3.666703e-01,3.333114e-02,8.334400e-02,6.942311e-06,4.000000e-01,34,2,1,1,1,2,3,3.170779e-01,1,1,Right,Vertical,Right,Vertical,Neither,Right,None,Staircase calibration,C
4,1,4,1,5.000000e-02,1.000000e-01,2.000000e+00,76,40,3.107150e-01,3.666631e-01,3.333627e-02,8.333766e-02,7.244293e-06,4.000000e-01,34,2,1,0,0,2,3,2.670871e-01,0,1,Left,Vertical,Left,Vertical,Neither,Left,None,Staircase calibration,C
4,1,4,1,5.000000e-02,1.000000e-01,2.000000e+00,76,40,3.107476e-01,3.917683e-01,8.321239e-03,8.332559e-02,7.244293e-06,4.000000e-01,8,2,1,1,1,2,3,3.088017e-01,1,1,Right,Vertical,Right,Vertical,Neither,Right,None,Staircase calibration,C
4,1,4,1,5.000000e-02,1.000000e-01,2.000000e+00,76,50,3.104090e-01,3.916878e-01,8.334822e-03,8.336301e-02,7.847790e-06,4.000000e-01,8,2,1,1,1,2,3,3.671095e-01,1,1,Right,Vertical,Right,Vertical,Neither,Right,None,Staircase calibration,C
4,1,4,1,5.000000e-02,9.048374e-02,1.809675e+00,76,55,3.188534e-01,2.667394e-01,1.333487e-01,8.335849e-02,7.244293e-06,4.000000e-01,134,2,1,1,1,2,3,2.920508e-01,1,1,Right,Vertical,Right,Vertical,Neither,Right,None,Staircase calibration,C
4,1,4,1,5.000000e-02,9.048374e-02,1.809675e+00,76,55,3.107929e-01,3.666806e-01,3.336857e-02,8.334400e-02,7.244293e-06,4.000000e-01,34,2,1,0,0,2,3,4.087589e-01,0,1,Left,Vertical,Left,Vertical,Neither,Left,None,Staircase calibration,C
4,1,4,1,5.000000e-02,9.048374e-02,1.809675e+00,76,40,3.107594e-01,3.666902e-01,3.334684e-02,8.335547e-02,7.546041e-06,4.000000e-01,34,2,1,1,1,2,3,2.503839e-01,0,0,Left,Vertical,Right,Vertical,Neither,Right,None,Staircase calibration,C
4,1,4,1,5.000000e-02,9.048374e-02,1.809675e+00,76,35,3.107277e-01,2.667216e-01,1.333336e-01,8.335245e-02,7.244293e-06,4.000000e-01,134,2,1,1,1,2,3,2.754328e-01,1,1,Right,Vertical,Right,Vertical,Neither,Right,None,Staircase calibration,C
4,1,4,1,5.000000e-02,9.048374e-02,1.809675e+00,76,40,3.107811e-01,3.666347e-01,3.333929e-02,8.332619e-02,7.546041e-06,4.000000e-01,34,2,1,0,0,2,3,2.670702e-01,0,1,Left,Vertical,Left,Vertical,Neither,Left,None,Staircase calibration,C
4,1,4,1,5.000000e-02,9.048374e-02,1.809675e+00,76,55,3.107648e-01,3.666905e-01,3.334714e-02,8.332619e-02,7.847790e-06,4.000000e-01,34,2,1,1,1,2,3,3.670603e-01,1,1,Right,Vertical,Right,Vertical,Neither,Right,None,Staircase calibration,C
4,1,4,1,5.000000e-02,9.048374e-02,1.809675e+00,76,35,3.106595e-01,3.916591e-01,8.334822e-03,8.333706e-02,7.244293e-06,4.000000e-01,8,2,1,0,0,2,3,3.171256e-01,0,1,Left,Vertical,Left,Vertical,Neither,Left,None,Staircase calibration,C
4,1,4,1,5.000000e-02,9.048374e-02,1.809675e+00,76,50,3.105225e-01,3.916992e-01,8.358668e-03,8.331623e-02,7.244293e-06,4.000000e-01,8,2,1,0,0,2,3,2.837392e-01,0,1,Left,Vertical,Left,Vertical,Neither,Left,None,Staircase calibration,C
4,1,4,1,5.000000e-02,9.048374e-02,1.809675e+00,76,45,3.108639e-01,3.916844e-01,8.345387e-03,8.334490e-02,7.244293e-06,4.000000e-01,8,2,1,1,1,2,3,2.337668e-01,1,1,Right,Vertical,Right,Vertical,Neither,Right,None,Staircase calibration,C
4,1,4,1,5.000000e-02,9.048374e-02,1.809675e+00,76,40,3.107594e-01,3.916488e-01,8.347198e-03,8.333675e-02,7.244060e-06,4.000000e-01,8,2,1,1,1,2,3,3.421201e-01,1,1,Right,Vertical,Right,Vertical,Neither,Right,None,Staircase calibration,C
4,1,5,2,5.000000e-02,9.048374e-02,1.809675e+00,76,55,3.153979e-01,3.667289e-01,3.329975e-02,8.333555e-02,7.244293e-06,4.000000e-01,34,1,2,0,0,2,3,2.501337e-01,1,0,Right,Right,Left,Vertical,Foil primed,Left,None,Main study,C
4,1,5,2,5.000000e-02,9.048374e-02,1.809675e+00,76,40,3.106933e-01,3.666513e-01,3.343890e-02,8.330476e-02,9.357231e-06,4.000000e-01,34,1,2,0,0,2,3,2.170519e-01,1,0,Right,Right,Left,Vertical,Foil primed,Left,None,Main study,C
4,1,5,2,5.000000e-02,9.048374e-02,1.809675e+00,76,35,3.187526e-01,3.666993e-01,3.333808e-02,8.336845e-02,7.244293e-06,4.000000e-01,34,1,3,1,1,2,3,2.503824e-01,1,1,Right,Right,Right,Vertical,Target primed,Right,None,Main study,C
4,1,5,2,5.000000e-02,9.048374e-02,1.809675e+00,76,50,3.108530e-01,3.667189e-01,3.336283e-02,8.333826e-02,6.942544e-06,4.000000e-01,34,0,2,1,1,2,3,2.337327e-01,0,0,Left,Left,Right,Vertical,Foil primed,Right,None,Main study,C
4,1,5,2,5.000000e-02,9.048374e-02,1.809675e+00,76,40,3.188497e-01,3.917216e-01,8.316410e-03,8.332619e-02,8.149771e-06,4.000000e-01,8,1,3,1,1,2,3,2.754008e-01,1,1,Right,Right,Right,Vertical,Target primed,Right,None,Main study,C
4,1,5,2,5.000000e-02,9.048374e-02,1.809675e+00,76,55,3.108288e-01,3.667174e-01,3.333869e-02,8.331804e-02,7.546041e-06,4.000000e-01,34,0,3,0,0,2,3,2.254269e-01,0,1,Left,Left,Left,Vertical,Target primed,Left,None,Main study,C
4,1,5,2,5.000000e-02,9.048374e-02,1.809675e+00,76,55,3.107950e-01,3.667367e-01,3.333295e-02,8.334913e-02,6.942544e-06,4.000000e-01,34,1,3,1,1,2,3,2.170658e-01,1,1,Right,Right,Right,Vertical,Target primed,Right,None,Main study,C
4,1,5,2,5.000000e-02,9.048374e-02,1.809675e+00,76,55,3.106357e-01,3.667271e-01,3.330941e-02,8.333645e-02,7.546041e-06,4.000000e-01,34,0,2,1,1,2,3,2.671049e-01,0,0,Left,Left,Right,Vertical,Foil primed,Right,None,Main study,C
4,1,5,2,5.000000e-02,9.048374e-02,1.809675e+00,76,50,3.188962e-01,2.666712e-01,1.333484e-01,8.334158e-02,7.244293e-06,4.000000e-01,134,1,2,0,0,2,3,3.087497e-01,1,0,Right,Right,Left,Vertical,Foil primed,Left,None,Main study,C
4,1,5,2,5.000000e-02,9.048374e-02,1.809675e+00,76,50,3.107597e-01,3.666570e-01,3.333929e-02,8.336543e-02,7.546041e-06,4.000000e-01,34,0,3,0,0,2,3,3.088044e-01,0,1,Left,Left,Left,Vertical,Target primed,Left,None,Main study,C
4,1,5,2,5.000000e-02,9.048374e-02,1.809675e+00,76,50,3.107540e-01,3.917297e-01,8.317014e-03,8.333675e-02,7.244293e-06,4.000000e-01,8,1,2,0,0,2,3,3.754639e-01,0,1,Left,Right,Left,Vertical,Foil primed,Left,None,Main study,C
4,1,5,2,5.000000e-02,9.048374e-02,1.809675e+00,76,35,3.105783e-01,2.666890e-01,1.333071e-01,8.333585e-02,7.546041e-06,4.000000e-01,134,0,2,1,1,2,3,3.421470e-01,1,1,Right,Left,Right,Vertical,Foil primed,Right,None,Main study,C
4,1,5,2,5.000000e-02,9.048374e-02,1.809675e+00,76,50,3.189255e-01,3.917306e-01,8.315504e-03,8.333796e-02,7.244293e-06,4.000000e-01,8,1,2,0,0,2,3,2.587601e-01,0,1,Left,Right,Left,Vertical,Foil primed,Left,None,Main study,C
4,1,5,2,5.000000e-02,9.048374e-02,1.809675e+00,76,55,3.105481e-01,2.666570e-01,1.333617e-01,8.335517e-02,7.244060e-06,4.000000e-01,134,1,3,1,1,2,3,2.420766e-01,1,1,Right,Right,Right,Vertical,Target primed,Right,None,Main study,C
4,1,5,2,5.000000e-02,9.048374e-02,1.809675e+00,76,55,3.107944e-01,3.917659e-01,8.315504e-03,8.333796e-02,7.244293e-06,4.000000e-01,8,1,3,1,1,2,3,2.504102e-01,1,1,Right,Right,Right,Vertical,Target primed,Right,None,Main study,C
4,1,5,2,5.000000e-02,9.048374e-02,1.809675e+00,76,35,3.107609e-01,3.666978e-01,3.327107e-02,8.338656e-02,7.244293e-06,4.000000e-01,34,0,2,1,1,2,3,2.754391e-01,0,0,Left,Left,Right,Vertical,Foil primed,Right,None,Main study,C
4,1,5,2,5.000000e-02,9.048374e-02,1.809675e+00,76,55,3.109695e-01,3.917656e-01,8.317919e-03,8.333434e-02,7.244293e-06,4.000000e-01,8,1,3,1,1,2,3,2.754068e-01,1,1,Right,Right,Right,Vertical,Target primed,Right,None,Main study,C
4,1,5,2,5.000000e-02,9.048374e-02,1.809675e+00,76,35,3.105810e-01,3.917044e-01,8.334521e-03,8.332860e-02,7.244293e-06,4.000000e-01,8,1,3,1,1,2,3,3.337968e-01,1,1,Right,Right,Right,Vertical,Target primed,Right,None,Main study,C
4,1,5,2,5.000000e-02,9.048374e-02,1.809675e+00,76,40,3.189128e-01,2.666847e-01,1.333532e-01,8.333736e-02,7.244293e-06,4.000000e-01,134,1,3,1,1,2,3,3.004276e-01,0,0,Left,Right,Right,Vertical,Target primed,Right,None,Main study,C
4,1,5,2,5.000000e-02,9.048374e-02,1.809675e+00,76,45,3.107096e-01,3.666646e-01,3.332480e-02,8.334370e-02,7.546041e-06,4.000000e-01,34,0,2,1,1,2,3,3.754537e-01,1,1,Right,Left,Right,Vertical,Foil primed,Right,None,Main study,C
4,1,5,2,5.000000e-02,9.048374e-02,1.809675e+00,76,40,3.106182e-01,2.666669e-01,1.333816e-01,8.333555e-02,7.244293e-06,4.000000e-01,134,0,2,1,1,2,3,2.587393e-01,0,0,Left,Left,Right,Vertical,Foil primed,Right,None,Main study,C
4,1,5,2,5.000000e-02,9.048374e-02,1.809675e+00,76,35,3.108068e-01,3.666284e-01,3.335861e-02,8.334732e-02,7.244293e-06,4.000000e-01,34,0,2,1,1,2,3,3.338088e-01,0,0,Left,Left,Right,Vertical,Foil primed,Right,None,Main study,C
4,1,5,2,5.000000e-02,9.048374e-02,1.809675e+00,76,45,3.106806e-01,3.666926e-01,3.334412e-02,8.333736e-02,7.244293e-06,4.000000e-01,34,0,3,0,0,2,3,3.587321e-01,0,1,Left,Left,Left,Vertical,Target primed,Left,None,Main study,C
4,1,5,2,5.000000e-02,9.048374e-02,1.809675e+00,76,35,3.104850e-01,2.666663e-01,1.333448e-01,8.332287e-02,7.546274e-06,4.000000e-01,134,1,2,0,0,2,3,4.754655e-01,0,1,Left,Right,Left,Vertical,Foil primed,Left,None,Main study,C
4,1,5,2,5.000000e-02,9.048374e-02,1.809675e+00,76,40,3.189762e-01,3.916775e-01,8.349311e-03,8.332347e-02,7.244293e-06,4.000000e-01,8,0,2,1,1,2,3,3.170767e-01,1,1,Right,Left,Right,Vertical,Foil primed,Right,None,Main study,C
4,1,5,2,5.000000e-02,9.048374e-02,1.809675e+00,76,40,3.107322e-01,3.667512e-01,3.332963e-02,8.333796e-02,7.244293e-06,4.000000e-01,34,1,2,0,0,2,3,3.837982e-01,0,1,Left,Right,Left,Vertical,Foil primed,Left,None,Main study,C
4,1,5,2,5.000000e-02,9.048374e-02,1.809675e+00,76,45,3.106900e-01,3.666984e-01,3.332993e-02,8.335547e-02,7.244293e-06,4.000000e-01,34,1,3,1,1,2,3,4.087682e-01,0,0,Left,Right,Right,Vertical,Target primed,Right,None,Main study,C
4,1,5,2,5.000000e-02,9.048374e-02,1.809675e+00,76,35,3.107685e-01,2.666878e-01,1.333484e-01,8.333887e-02,7.244060e-06,4.000000e-01,134,1,3,1,1,2,3,2.754195e-01,1,1,Right,Right,Right,Vertical,Target primed,Right,None,Main study,C
4,1,5,2,5.000000e-02,9.048374e-02,1.809675e+00,76,40,3.107715e-01,2.666485e-01,1.333475e-01,8.333706e-02,7.244293e-06,4.000000e-01,134,0,2,1,1,2,3,4.588064e-01,1,1,Right,Left,Right,Vertical,Foil primed,Right,None,Main study,C
4,1,5,2,5.000000e-02,9.048374e-02,1.809675e+00,76,40,3.106794e-01,3.666510e-01,3.334382e-02,8.336241e-02,7.244293e-06,4.000000e-01,34,0,3,0,0,2,3,3.837589e-01,0,1,Left,Left,Left,Vertical,Target primed,Left,None,Main study,C
4,1,5,2,5.000000e-02,9.048374e-02,1.809675e+00,76,40,3.188528e-01,3.917400e-01,8.328786e-03,8.333645e-02,6.942311e-06,4.000000e-01,8,1,2,0,0,2,3,3.671083e-01,0,1,Left,Right,Left,Vertical,Foil primed,Left,None,Main study,C
4,1,5,2,5.000000e-02,9.048374e-02,1.809675e+00,76,40,3.106942e-01,3.667011e-01,3.333657e-02,8.333766e-02,7.244293e-06,4.000000e-01,34,0,3,0,0,2,3,3.753978e-01,0,1,Left,Left,Left,Vertical,Target primed,Left,None,Main study,C
4,1,5,2,5.000000e-02,9.048374e-02,1.809675e+00,76,35,3.106311e-01,3.917348e-01,8.354140e-03,8.331804e-02,7.546041e-06,4.000000e-01,8,0,2,1,1,2,3,3.171051e-01,1,1,Right,Left,Right,Vertical,Foil primed,Right,None,Main study,C
4,1,5,2,5.000000e-02,9.048374e-02,1.809675e+00,76,40,3.107238e-01,3.666887e-01,3.335921e-02,8.331593e-02,7.244293e-06,4.000000e-01,34,0,2,1,1,2,3,3.754150e-01,1,1,Right,Left,Right,Vertical,Foil primed,Right,None,Main study,C
4,1,5,2,5.000000e-02,9.048374e-02,1.809675e+00,76,35,3.190568e-01,3.666187e-01,3.333989e-02,8.333645e-02,7.244293e-06,4.000000e-01,34,0,3,0,0,2,3,3.420797e-01,0,1,Left,Left,Left,Vertical,Target primed,Left,None,Main study,C
4,1,5,2,5.000000e-02,9.048374e-02,1.809675e+00,76,55,3.108116e-01,3.667277e-01,3.332269e-02,8.335185e-02,7.244293e-06,4.000000e-01,34,0,2,1,1,2,3,3.171464e-01,0,0,Left,Left,Right,Vertical,Foil primed,Right,None,Main study,C
4,1,5,2,5.000000e-02,9.048374e-02,1.809675e+00,76,35,3.108451e-01,3.916627e-01,8.317919e-03,8.335305e-02,7.244293e-06,4.000000e-01,8,1,3,1,1,2,3,2.754430e-01,1,1,Right,Right,Right,Vertical,Target primed,Right,None,Main study,C
4,1,5,2,5.000000e-02,9.048374e-02,1.809675e+00,76,55,3.109034e-01,3.666664e-01,3.337098e-02,8.330265e-02,7.546274e-06,4.000000e-01,34,0,2,1,1,2,3,3.504936e-01,1,1,Right,Left,Right,Vertical,Foil primed,Right,None,Main study,C
4,1,5,2,5.000000e-02,9.048374e-02,1.809675e+00,76,55,3.189140e-01,3.917415e-01,8.327880e-03,8.333525e-02,6.942311e-06,4.000000e-01,8,1,2,0,0,2,3,3.587258e-01,1,0,Right,Right,Left,Vertical,Foil primed,Left,None,Main study,C
4,1,5,2,5.000000e-02,9.048374e-02,1.809675e+00,76,50,3.189077e-01,3.666969e-01,3.333959e-02,8.335758e-02,6.942544e-06,4.000000e-01,34,1,3,1,1,2,3,3.920611e-01,1,1,Right,Right,Right,Vertical,Target primed,Right,None,Main study,C
4,1,5,2,5.000000e-02,9.048374e-02,1.809675e+00,76,55,3.109070e-01,3.917125e-01,8.327578e-03,8.331713e-02,7.244293e-06,4.000000e-01,8,0,2,1,1,2,3,3.587840e-01,1,1,Right,Left,Right,Vertical,Foil primed,Right,None,Main study,C
4,1,5,2,5.000000e-02,9.048374e-02,1.809675e+00,76,35,3.107440e-01,3.666634e-01,3.333929e-02,8.337901e-02,1.660152e-05,4.000000e-01,34,0,3,0,0,2,3,2.670403e-01,0,1,Left,Left,Left,Vertical,Target primed,Left,None,Main study,C
4,1,5,2,5.000000e-02,9.048374e-02,1.809675e+00,76,45,3.106900e-01,3.666616e-01,3.333567e-02,8.338565e-02,7.244293e-06,4.000000e-01,34,1,2,0,0,2,3,2.670817e-01,1,0,Right,Right,Left,Vertical,Foil primed,Left,None,Main study,C
4,1,5,2,5.000000e-02,9.048374e-02,1.809675e+00,76,35,3.106806e-01,3.917442e-01,8.326974e-03,8.334822e-02,7.244293e-06,4.000000e-01,8,0,3,0,0,2,3,3.837595e-01,0,1,Left,Left,Left,Vertical,Target primed,Left,None,Main study,C
4,1,5,2,5.000000e-02,9.048374e-02,1.809675e+00,76,50,3.106495e-01,3.666555e-01,3.333778e-02,8.336694e-02,7.244293e-06,4.000000e-01,34,1,2,0,0,2,3,5.171067e-01,0,1,Left,Right,Left,Vertical,Foil primed,Left,None,Main study,C
4,1,5,2,5.000000e-02,9.048374e-02,1.809675e+00,76,50,3.106990e-01,3.917484e-01,8.287433e-03,8.337177e-02,7.546041e-06,4.000000e-01,8,0,3,0,0,2,3,3.420951e-01,0,1,Left,Left,Left,Vertical,Target primed,Left,None,Main study,C
4,1,5,2,5.000000e-02,9.048374e-02,1.809675e+00,76,45,3.108611e-01,3.916823e-01,8.357159e-03,8.331472e-02,6.942311e-06,4.000000e-01,8,0,2,1,1,2,3,2.921003e-01,1,1,Right,Left,Right,Vertical,Foil primed,Right,None,Main study,C
4,1,5,2,5.000000e-02,9.048374e-02,1.809675e+00,76,40,3.107944e-01,2.666681e-01,1.333584e-01,8.328242e-02,7.244060e-06,4.000000e-01,134,1,2,0,0,2,3,3.837749e-01,0,1,Left,Right,Left,Vertical,Foil primed,Left,None,Main study,C
4,1,5,2,5.000000e-02,9.048374e-02,1.809675e+00,76,55,3.107386e-01,3.667089e-01,3.330548e-02,8.335879e-02,7.546041e-06,4.000000e-01,34,1,3,1,1,2,3,2.754370e-01,1,1,Right,Right,Right,Vertical,Target primed,Right,None,Main study,C
4,1,5,2,5.000000e-02,9.048374e-02,1.809675e+00,76,55,3.106936e-01,3.917140e-01,8.339954e-03,8.329329e-02,7.848023e-06,4.000000e-01,8,0,2,1,1,2,3,3.754724e-01,1,1,Right,Left,Right,Vertical,Foil primed,Right,None,Main study,C
4,1,5,2,5.000000e-02,9.048374e-02,1.809675e+00,76,55,3.108297e-01,3.667364e-01,3.333959e-02,8.333585e-02,7.244293e-06,4.000000e-01,34,1,3,1,1,2,3,5.921023e-01,1,1,Right,Right,Right,Vertical,Target primed,Right,None,Main study,C
4,1,5,2,5.000000e-02,9.048374e-02,1.809675e+00,76,55,3.107528e-01,3.666730e-01,3.333325e-02,8.331683e-02,7.848023e-06,4.000000e-01,34,0,2,1,1,2,3,3.754223e-01,1,1,Right,Left,Right,Vertical,Foil primed,Right,None,Main study,C
4,1,5,2,5.000000e-02,9.048374e-02,1.809675e+00,76,40,3.106803e-01,2.666884e-01,1.332790e-01,8.335969e-02,7.244293e-06,4.000000e-01,134,0,2,1,1,2,3,3.421397e-01,0,0,Left,Left,Right,Vertical,Foil primed,Right,None,Main study,C
4,1,5,2,5.000000e-02,9.048374e-02,1.809675e+00,76,40,3.188700e-01,3.667092e-01,3.334865e-02,8.332710e-02,7.244293e-06,4.000000e-01,34,1,3,1,1,2,3,4.337534e-01,1,1,Right,Right,Right,Vertical,Target primed,Right,None,Main study,C
4,1,5,2,5.000000e-02,9.048374e-02,1.809675e+00,76,35,3.106172e-01,3.666597e-01,3.333778e-02,8.344119e-02,9.055249e-06,4.000000e-01,34,1,3,1,1,2,3,4.086822e-01,0,0,Left,Right,Right,Vertical,Target primed,Right,None,Main study,C
4,1,5,2,5.000000e-02,9.048374e-02,1.809675e+00,76,40,3.188624e-01,3.916289e-01,8.336634e-03,8.336241e-02,7.244060e-06,4.000000e-01,8,0,2,1,1,2,3,3.171537e-01,0,0,Left,Left,Right,Vertical,Foil primed,Right,None,Main study,C
4,1,5,2,5.000000e-02,9.048374e-02,1.809675e+00,76,55,3.108180e-01,3.916370e-01,8.350820e-03,8.332045e-02,6.942544e-06,4.000000e-01,8,1,2,0,0,2,3,4.504631e-01,0,1,Left,Right,Left,Vertical,Foil primed,Left,None,Main study,C
4,1,5,2,5.000000e-02,9.048374e-02,1.809675e+00,76,35,3.189964e-01,3.666866e-01,3.334261e-02,8.334732e-02,7.244293e-06,4.000000e-01,34,1,2,0,0,2,3,3.254061e-01,1,0,Right,Right,Left,Vertical,Foil primed,Left,None,Main study,C
4,1,5,2,5.000000e-02,9.048374e-02,1.809675e+00,76,45,3.189092e-01,2.667004e-01,1.332781e-01,8.339592e-02,7.244293e-06,4.000000e-01,134,0,2,1,1,2,3,4.170937e-01,1,1,Right,Left,Right,Vertical,Foil primed,Right,None,Main study,C
4,1,5,2,5.000000e-02,9.048374e-02,1.809675e+00,76,45,3.106628e-01,3.916666e-01,8.337237e-03,8.338505e-02,9.055249e-06,4.000000e-01,8,1,3,1,1,2,3,3.587252e-01,1,1,Right,Right,Right,Vertical,Target primed,Right,None,Main study,C
4,1,6,2,5.000000e-02,9.048374e-02,1.809675e+00,76,35,3.189998e-01,2.663763e-01,1.333520e-01,8.333826e-02,7.244293e-06,4.000000e-01,134,0,3,0,0,2,3,3.754235e-01,0,1,Left,Left,Left,Vertical,Target primed,Left,None,Main study,C
4,1,6,2,5.000000e-02,9.048374e-02,1.809675e+00,76,45,3.103906e-01,2.666865e-01,1.333514e-01,8.330295e-02,7.244060e-06,4.000000e-01,134,1,2,0,0,2,3,1.754188e-01,1,0,Right,Right,Left,Vertical,Foil primed,Left,None,Main study,C
4,1,6,2,5.000000e-02,9.048374e-02,1.809675e+00,76,50,3.189020e-01,3.917406e-01,8.320938e-03,8.334853e-02,6.942311e-06,4.000000e-01,8,1,3,1,1,2,3,2.504090e-01,1,1,Right,Right,Right,Vertical,Target primed,Right,None,Main study,C
4,1,6,2,5.000000e-02,9.048374e-02,1.809675e+00,76,50,3.107781e-01,2.667318e-01,1.333478e-01,8.333706e-02,7.546041e-06,4.000000e-01,134,1,3,1,1,2,3,3.837610e-01,0,0,Left,Right,Right,Vertical,Target primed,Right,None,Main study,C
4,1,6,2,5.000000e-02,9.048374e-02,1.809675e+00,76,45,3.107585e-01,3.916980e-01,8.343274e-03,8.334128e-02,7.244293e-06,4.000000e-01,8,1,3,1,1,2,3,2.838093e-01,1,1,Right,Right,Right,Vertical,Target primed,Right,None,Main study,C
4,1,6,2,5.000000e-02,9.048374e-02,1.809675e+00,76,35,3.107932e-01,2.666736e-01,1.333481e-01,8.333162e-02,9.357231e-06,4.000000e-01,134,1,3,1,1,2,3,3.670706e-01,0,0,Left,Right,Right,Vertical,Target primed,Right,None,Main study,C
4,1,6,2,5.000000e-02,9.048374e-02,1.809675e+00,76,40,3.188002e-01,3.917004e-01,8.344481e-03,8.335969e-02,7.244293e-06,4.000000e-01,8,1,2,0,0,2,3,3.671155e-01,1,0,Right,Right,Left,Vertical,Foil primed,Left,None,Main study,C
4,1,6,2,5.000000e-02,9.048374e-02,1.809675e+00,76,40,3.105403e-01,2.666980e-01,1.333671e-01,8.331864e-02,7.244293e-06,4.000000e-01,134,0,3,0,0,2,3,4.504215e-01,0,1,Left,Left,Left,Vertical,Target primed,Left,None,Main study,C
4,1,6,2,5.000000e-02,9.048374e-02,1.809675e+00,76,35,3.107223e-01,3.916597e-01,8.342972e-03,8.333887e-02,7.546041e-06,4.000000e-01,8,1,3,1,1,2,3,3.420905e-01,1,1,Right,Right,Right,Vertical,Target primed,Right,None,Main study,C
4,1,6,2,5.000000e-02,9.048374e-02,1.809675e+00,76,35,3.107009e-01,2.667074e-01,1.333315e-01,8.335879e-02,7.244293e-06,4.000000e-01,134,0,3,0,0,2,3,4.837620e-01,0,1,Left,Left,Left,Vertical,Target primed,Left,None,Main study,C
4,1,6,2,5.000000e-02,9.048374e-02,1.809675e+00,76,35,3.188362e-01,2.666881e-01,1.333493e-01,8.333706e-02,7.546041e-06,4.000000e-01,134,0,3,0,0,2,3,4.171088e-01,1,0,Right,Left,Left,Vertical,Target primed,Left,None,Main study,C
4,1,6,2,5.000000e-02,9.048374e-02,1.809675e+00,76,55,3.188615e-01,3.917122e-01,8.318523e-03,8.335879e-02,7.244293e-06,4.000000e-01,8,0,3,0,0,2,3,4.671053e-01,1,0,Right,Left,Left,Vertical,Target primed,Left,None,Main study,C
4,1,6,2,5.000000e-02,9.048374e-02,1.809675e+00,76,35,3.188021e-01,3.667228e-01,3.333869e-02,8.331985e-02,7.244293e-06,4.000000e-01,34,1,3,1,1,2,3,4.838278e-01,1,1,Right,Right,Right,Vertical,Target primed,Right,None,Main study,C
4,1,6,2,5.000000e-02,9.048374e-02,1.809675e+00,76,35,3.189539e-01,3.666800e-01,3.335046e-02,8.332619e-02,7.546041e-06,4.000000e-01,34,0,2,1,1,2,3,4.588043e-01,1,1,Right,Left,Right,Vertical,Foil primed,Right,None,Main study,C
4,1,6,2,5.000000e-02,9.048374e-02,1.809675e+00,76,40,3.106082e-01,3.667111e-01,3.333959e-02,8.335637e-02,7.244293e-06,4.000000e-01,34,1,2,0,0,2,3,4.337573e-01,0,1,Left,Right,Left,Vertical,Foil primed,Left,None,Main study,C
4,1,6,2,5.000000e-02,9.048374e-02,1.809675e+00,76,50,3.106987e-01,3.667102e-01,3.334050e-02,8.335939e-02,7.244060e-06,4.000000e-01,34,1,3,1,1,2,3,3.170631e-01,1,1,Right,Right,Right,Vertical,Target primed,Right,None,Main study,C
4,1,6,2,5.000000e-02,9.048374e-02,1.809675e+00,76,40,3.189635e-01,3.916974e-01,8.344783e-03,8.332830e-02,7.244293e-06,4.000000e-01,8,1,2,0,0,2,3,3.921067e-01,0,1,Left,Right,Left,Vertical,Foil primed,Left,None,Main study,C
4,1,6,2,5.000000e-02,9.048374e-02,1.809675e+00,76,50,3.189361e-01,3.917234e-01,8.345991e-03,8.335698e-02,7.244293e-06,4.000000e-01,8,1,3,1,1,2,3,6.754379e-01,1,1,Right,Right,Right,Vertical,Target primed,Right,None,Main study,C
4,1,6,2,5.000000e-02,9.048374e-02,1.809675e+00,76,35,3.189008e-01,2.666983e-01,1.333611e-01,8.328967e-02,7.244293e-06,4.000000e-01,134,0,2,1,1,2,3,6.838089e-01,0,0,Left,Left,Right,Vertical,Foil primed,Right,None,Main study,C
4,1,6,2,5.000000e-02,9.048374e-02,1.809675e+00,76,50,3.188546e-01,3.916890e-01,8.347198e-03,8.335607e-02,6.942311e-06,4.000000e-01,8,1,2,0,0,2,3,4.754583e-01,0,1,Left,Right,Left,Vertical,Foil primed,Left,None,Main study,C
4,1,6,2,5.000000e-02,9.048374e-02,1.809675e+00,76,45,3.189361e-01,3.916549e-01,8.331804e-03,8.334672e-02,7.546041e-06,4.000000e-01,8,0,2,1,1,2,3,3.254158e-01,1,1,Right,Left,Right,Vertical,Foil primed,Right,None,Main study,C
4,1,6,2,5.000000e-02,9.048374e-02,1.809675e+00,76,40,3.109203e-01,3.917306e-01,8.367724e-03,8.330476e-02,6.942544e-06,4.000000e-01,8,0,2,1,1,2,3,3.671158e-01,1,1,Right,Left,Right,Vertical,Foil primed,Right,None,Main study,C
4,1,6,2,5.000000e-02,9.048374e-02,1.809675e+00,76,45,3.106667e-01,2.666899e-01,1.333092e-01,8.334007e-02,7.546041e-06,4.000000e-01,134,0,3,0,0,2,3,4.421335e-01,1,0,Right,Left,Left,Vertical,Target primed,Left,None,Main study,C
4,1,6,2,5.000000e-02,9.048374e-02,1.809675e+00,76,45,3.106840e-01,3.666603e-01,3.334321e-02,8.333917e-02,7.244293e-06,4.000000e-01,34,1,3,1,1,2,3,4.922206e-01,0,0,Left,Right,Right,Vertical,Target primed,Right,None,Main study,C
4,1,6,2,5.000000e-02,9.048374e-02,1.809675e+00,76,40,3.188808e-01,3.917412e-01,8.335124e-03,8.333857e-02,7.546041e-06,4.000000e-01,8,0,3,0,0,2,3,4.087576e-01,0,1,Left,Left,Left,Vertical,Target primed,Left,None,Main study,C
4,1,6,2,5.000000e-02,9.048374e-02,1.809675e+00,76,40,3.107467e-01,2.666890e-01,1.332802e-01,8.337388e-02,7.244293e-06,4.000000e-01,134,0,2,1,1,2,3,3.921182e-01,1,1,Right,Left,Right,Vertical,Foil primed,Right,None,Main study,C
4,1,6,2,5.000000e-02,9.048374e-02,1.809675e+00,76,55,3.107093e-01,3.916642e-01,8.336030e-03,8.336483e-02,7.244293e-06,4.000000e-01,8,0,2,1,1,2,3,3.837173e-01,1,1,Right,Left,Right,Vertical,Foil primed,Right,None,Main study,C
4,1,6,2,5.000000e-02,9.048374e-02,1.809675e+00,76,40,3.188721e-01,2.666539e-01,1.333807e-01,8.331925e-02,7.244293e-06,4.000000e-01,134,1,2,0,0,2,3,4.004421e-01,0,1,Left,Right,Left,Vertical,Foil primed,Left,None,Main study,C
4,1,6,2,5.000000e-02,9.048374e-02,1.809675e+00,76,55,3.107247e-01,3.916893e-01,8.349009e-03,8.333645e-02,7.244293e-06,4.000000e-01,8,1,3,1,1,2,3,3.254079e-01,1,1,Right,Right,Right,Vertical,Target primed,Right,None,Main study,C
4,1,6,2,5.000000e-02,9.048374e-02,1.809675e+00,76,45,3.108376e-01,2.666334e-01,1.333810e-01,8.332528e-02,7.244293e-06,4.000000e-01,134,0,3,0,0,2,3,5.004316e-01,1,0,Right,Left,Left,Vertical,Target primed,Left,None,Main study,C
4,1,6,2,5.000000e-02,9.048374e-02,1.809675e+00,76,45,3.186246e-01,3.917442e-01,8.355348e-03,8.328544e-02,7.244293e-06,4.000000e-01,8,0,3,0,0,2,3,3.837988e-01,1,0,Right,Left,Left,Vertical,Target primed,Left,None,Main study,C
4,1,6,2,5.000000e-02,9.048374e-02,1.809675e+00,76,35,3.109028e-01,3.917001e-01,8.337841e-03,8.336301e-02,7.244293e-06,4.000000e-01,8,0,2,1,1,2,3,7.004215e-01,0,0,Left,Left,Right,Vertical,Foil primed,Right,None,Main study,C
4,1,6,2,5.000000e-02,9.048374e-02,1.809675e+00,76,40,3.105919e-01,3.667512e-01,3.330880e-02,8.334641e-02,7.244293e-06,4.000000e-01,34,0,2,1,1,2,3,4.754365e-01,1,1,Right,Left,Right,Vertical,Foil primed,Right,None,Main study,C
4,1,6,2,5.000000e-02,9.048374e-02,1.809675e+00,76,45,3.188860e-01,2.667107e-01,1.333889e-01,8.331955e-02,7.244293e-06,4.000000e-01,134,1,2,0,0,2,3,4.837590e-01,0,1,Left,Right,Left,Vertical,Foil primed,Left,None,Main study,C
4,1,6,2,5.000000e-02,9.048374e-02,1.809675e+00,76,45,3.189442e-01,2.667047e-01,1.332729e-01,8.337086e-02,7.244293e-06,4.000000e-01,134,0,3,0,0,2,3,7.171530e-01,0,1,Left,Left,Left,Vertical,Target primed,Left,None,Main study,C
4,1,6,2,5.000000e-02,9.048374e-02,1.809675e+00,76,55,3.188654e-01,3.917333e-01,8.334822e-03,8.335849e-02,7.244293e-06,4.000000e-01,8,0,2,1,1,2,3,3.837342e-01,1,1,Right,Left,Right,Vertical,Foil primed,Right,None,Main study,C
4,1,6,2,5.000000e-02,9.048374e-02,1.809675e+00,76,55,3.188703e-01,2.666543e-01,1.334000e-01,8.330687e-02,7.244293e-06,4.000000e-01,134,1,2,0,0,2,3,5.754541e-01,0,1,Left,Right,Left,Vertical,Foil primed,Left,None,Main study,C
4,1,6,2,5.000000e-02,9.048374e-02,1.809675e+00,76,55,3.106372e-01,3.667135e-01,3.332390e-02,8.333796e-02,6.942311e-06,4.000000e-01,34,1,3,1,1,2,3,2.837163e-01,1,1,Right,Right,Right,Vertical,Target primed,Right,None,Main study,C
4,1,6,2,5.000000e-02,9.048374e-02,1.809675e+00,76,50,3.107298e-01,2.667207e-01,1.333110e-01,8.332679e-02,7.546041e-06,4.000000e-01,134,1,3,1,1,2,3,7.421572e-01,0,0,Left,Right,Right,Vertical,Target primed,Right,None,Main study,C
4,1,6,2,5.000000e-02,9.048374e-02,1.809675e+00,76,45,3.186566e-01,3.667240e-01,3.335227e-02,8.335245e-02,6.942544e-06,4.000000e-01,34,0,3,0,0,2,3,3.670651e-01,0,1,Left,Left,Left,Vertical,Target primed,Left,None,Main study,C
4,1,6,2,5.000000e-02,9.048374e-02,1.809675e+00,76,55,3.106652e-01,3.666558e-01,3.334231e-02,8.333525e-02,7.244293e-06,4.000000e-01,34,1,3,1,1,2,3,2.337635e-01,1,1,Right,Right,Right,Vertical,Target primed,Right,None,Main study,C
4,1,6,2,5.000000e-02,9.048374e-02,1.809675e+00,76,55,3.107383e-01,3.666999e-01,3.334834e-02,8.333645e-02,7.244293e-06,4.000000e-01,34,0,2,1,1,2,3,5.088172e-01,1,1,Right,Left,Right,Vertical,Foil primed,Right,None,Main study,C
4,1,6,2,5.000000e-02,9.048374e-02,1.809675e+00,76,50,3.186554e-01,2.666666e-01,1.333478e-01,8.333645e-02,7.244293e-06,4.000000e-01,134,0,2,1,1,2,3,5.087985e-01,1,1,Right,Left,Right,Vertical,Foil primed,Right,None,Main study,C
4,1,6,2,5.000000e-02,9.048374e-02,1.809675e+00,76,45,3.106987e-01,3.666643e-01,3.334050e-02,8.346866e-02,9.055249e-06,4.000000e-01,34,1,2,0,0,2,3,3.919805e-01,0,1,Left,Right,Left,Vertical,Foil primed,Left,None,Main study,C
4,1,6,2,5.000000e-02,9.048374e-02,1.809675e+00,76,35,3.107123e-01,2.666875e-01,1.333116e-01,8.333404e-02,7.244293e-06,4.000000e-01,134,0,2,1,1,2,3,5.338153e-01,1,1,Right,Left,Right,Vertical,Foil primed,Right,None,Main study,C
4,1,6,2,5.000000e-02,9.048374e-02,1.809675e+00,76,45,3.105913e-01,3.667391e-01,3.333597e-02,8.334702e-02,7.244293e-06,4.000000e-01,34,1,2,0,0,2,3,4.170783e-01,0,1,Left,Right,Left,Vertical,Foil primed,Left,None,Main study,C
4,1,6,2,5.000000e-02,9.048374e-02,1.809675e+00,76,40,3.106809e-01,2.666754e-01,1.333584e-01,8.333766e-02,7.244293e-06,4.000000e-01,134,0,2,1,1,2,3,4.004687e-01,1,1,Right,Left,Right,Vertical,Foil primed,Right,None,Main study,C
4,1,6,2,5.000000e-02,9.048374e-02,1.809675e+00,76,40,3.107636e-01,3.666993e-01,3.332631e-02,8.334792e-02,7.244060e-06,4.000000e-01,34,1,2,0,0,2,3,4.087948e-01,0,1,Left,Right,Left,Vertical,Foil primed,Left,None,Main study,C
4,1,6,2,5.000000e-02,9.048374e-02,1.809675e+00,76,55,3.168609e-01,3.667274e-01,3.333899e-02,8.333645e-02,6.942544e-06,4.000000e-01,34,0,3,0,0,2,3,5.504369e-01,0,1,Left,Left,Left,Vertical,Target primed,Left,None,Main study,C
4,1,6,2,5.000000e-02,9.048374e-02,1.809675e+00,76,45,3.189213e-01,3.917237e-01,8.314297e-03,8.330144e-02,7.244293e-06,4.000000e-01,8,1,3,1,1,2,3,2.754572e-01,1,1,Right,Right,Right,Vertical,Target primed,Right,None,Main study,C
4,1,6,2,5.000000e-02,9.048374e-02,1.809675e+00,76,40,3.108651e-01,2.666899e-01,1.333493e-01,8.334339e-02,7.848023e-06,4.000000e-01,134,1,3,1,1,2,3,4.421166e-01,0,0,Left,Right,Right,Vertical,Target primed,Right,None,Main study,C
4,1,6,2,5.000000e-02,9.048374e-02,1.809675e+00,76,45,3.188184e-01,3.666679e-01,3.333476e-02,8.333766e-02,7.244293e-06,4.000000e-01,34,0,3,0,0,2,3,3.004481e-01,0,1,Left,Left,Left,Vertical,Target primed,Left,None,Main study,C
4,1,6,2,5.000000e-02,9.048374e-02,1.809675e+00,76,55,3.107932e-01,3.917128e-01,8.336935e-03,8.329087e-02,7.546041e-06,4.000000e-01,8,0,2,1,1,2,3,3.088207e-01,1,1,Right,Left,Right,Vertical,Foil primed,Right,None,Main study,C
4,1,6,2,5.000000e-02,9.048374e-02,1.809675e+00,76,40,3.189146e-01,2.667294e-01,1.333499e-01,8.332710e-02,7.546041e-06,4.000000e-01,134,0,2,1,1,2,3,6.337982e-01,1,1,Right,Left,Right,Vertical,Foil primed,Right,None,Main study,C
4,1,6,2,5.000000e-02,9.048374e-02,1.809675e+00,76,35,3.105723e-01,2.666802e-01,1.333125e-01,8.339320e-02,7.546274e-06,4.000000e-01,134,0,2,1,1,2,3,3.337512e-01,0,0,Left,Left,Right,Vertical,Foil primed,Right,None,Main study,C
4,1,6,2,5.000000e-02,9.048374e-02,1.809675e+00,76,50,3.107673e-01,3.666893e-01,3.334865e-02,8.333736e-02,7.244060e-06,4.000000e-01,34,1,3,1,1,2,3,4.670821e-01,0,0,Left,Right,Right,Vertical,Target primed,Right,None,Main study,C
4,1,6,2,5.000000e-02,9.048374e-02,1.809675e+00,76,35,3.108107e-01,3.917010e-01,8.337539e-03,8.336030e-02,7.244293e-06,4.000000e-01,8,1,2,0,0,2,3,4.337298e-01,0,1,Left,Right,Left,Vertical,Foil primed,Left,None,Main study,C
4,1,6,2,5.000000e-02,9.048374e-02,1.809675e+00,76,50,3.106909e-01,3.916802e-01,8.359876e-03,8.329782e-02,7.244293e-06,4.000000e-01,8,1,2,0,0,2,3,3.087633e-01,1,0,Right,Right,Left,Vertical,Foil primed,Left,None,Main study,C
4,1,6,2,5.000000e-02,9.048374e-02,1.809675e+00,76,35,3.108808e-01,3.917294e-01,8.309468e-03,8.333555e-02,7.244293e-06,4.000000e-01,8,0,3,0,0,2,3,4.004566e-01,0,1,Left,Left,Left,Vertical,Target primed,Left,None,Main study,C
4,1,6,2,5.000000e-02,9.048374e-02,1.809675e+00,76,35,3.106200e-01,3.916696e-01,8.319126e-03,8.338686e-02,7.546274e-06,4.000000e-01,8,1,2,0,0,2,3,3.087497e-01,1,0,Right,Right,Left,Vertical,Foil primed,Left,None,Main study,C
4,1,7,2,5.000000e-02,9.048374e-02,1.809675e+00,76,50,3.185150e-01,3.914719e-01,8.317014e-03,8.332015e-02,7.244293e-06,4.000000e-01,8,1,3,1,1,2,3,2.920641e-01,1,1,Right,Right,Right,Vertical,Target primed,Right,None,Main study,C
4,1,7,2,5.000000e-02,9.048374e-02,1.809675e+00,76,50,3.107845e-01,3.916983e-01,8.338746e-03,8.332528e-02,1.629954e-05,4.000000e-01,8,0,3,0,0,2,3,2.753941e-01,0,1,Left,Left,Left,Vertical,Target primed,Left,None,Main study,C
4,1,7,2,5.000000e-02,9.048374e-02,1.809675e+00,76,50,3.107350e-01,2.666549e-01,1.333819e-01,8.333675e-02,7.244293e-06,4.000000e-01,134,1,2,0,0,2,3,3.837607e-01,0,1,Left,Right,Left,Vertical,Foil primed,Left,None,Main study,C
4,1,7,2,5.000000e-02,9.048374e-02,1.809675e+00,76,50,3.107235e-01,3.916902e-01,8.335426e-03,8.336392e-02,7.546041e-06,4.000000e-01,8,0,2,1,1,2,3,2.587345e-01,1,1,Right,Left,Right,Vertical,Foil primed,Right,None,Main study,C
4,1,7,2,5.000000e-02,9.048374e-02,1.809675e+00,76,40,3.104678e-01,3.916784e-01,8.326069e-03,8.333675e-02,7.244293e-06,4.000000e-01,8,1,3,1,1,2,3,2.587719e-01,1,1,Right,Right,Right,Vertical,Target primed,Right,None,Main study,C
4,1,7,2,5.000000e-02,9.048374e-02,1.809675e+00,76,50,3.106827e-01,3.667524e-01,3.329281e-02,8.334400e-02,7.546041e-06,4.000000e-01,34,1,2,0,0,2,3,3.420776e-01,0,1,Left,Right,Left,Vertical,Foil primed,Left,None,Main study,C
4,1,7,2,5.000000e-02,9.048374e-02,1.809675e+00,76,55,3.108690e-01,2.666811e-01,1.333617e-01,8.330023e-02,7.244293e-06,4.000000e-01,134,0,2,1,1,2,3,3.337889e-01,1,1,Right,Left,Right,Vertical,Foil primed,Right,None,Main study,C
4,1,7,2,5.000000e-02,9.048374e-02,1.809675e+00,76,55,3.189481e-01,2.667152e-01,1.333620e-01,8.332619e-02,7.546041e-06,4.000000e-01,134,1,2,0,0,2,3,4.254400e-01,0,1,Left,Right,Left,Vertical,Foil primed,Left,None,Main study,C
4,1,7,2,5.000000e-02,9.048374e-02,1.809675e+00,76,35,3.106734e-01,3.916929e-01,8.338143e-03,8.333645e-02,7.244293e-06,4.000000e-01,8,1,3,1,1,2,3,3.255305e-01,1,1,Right,Right,Right,Vertical,Target primed,Right,None,Main study,C
4,1,7,2,5.000000e-02,9.048374e-02,1.809675e+00,76,35,3.107718e-01,2.666868e-01,1.333508e-01,8.332649e-02,7.546041e-06,4.000000e-01,134,1,3,1,1,2,3,3.587816e-01,0,0,Left,Right,Right,Vertical,Target primed,Right,None,Main study,C
4,1,7,2,5.000000e-02,9.048374e-02,1.809675e+00,76,55,3.109046e-01,3.917092e-01,8.327276e-03,8.333917e-02,7.244293e-06,4.000000e-01,8,0,2,1,1,2,3,2.088031e-01,1,1,Right,Left,Right,Vertical,Foil primed,Right,None,Main study,C
4,1,7,2,5.000000e-02,9.048374e-02,1.809675e+00,76,40,3.107914e-01,3.917237e-01,8.346293e-03,8.330234e-02,7.244293e-06,4.000000e-01,8,1,3,1,1,2,3,1.837597e-01,0,0,Left,Right,Right,Vertical,Target primed,Right,None,Main study,C
4,1,7,2,5.000000e-02,9.048374e-02,1.809675e+00,76,45,3.107156e-01,3.917025e-01,8.335426e-03,8.333947e-02,7.244293e-06,4.000000e-01,8,1,3,1,1,2,3,3.171280e-01,1,1,Right,Right,Right,Vertical,Target primed,Right,None,Main study,C
4,1,7,2,5.000000e-02,9.048374e-02,1.809675e+00,76,45,3.107268e-01,3.916956e-01,8.343878e-03,8.328816e-02,7.546274e-06,4.000000e-01,8,1,2,0,0,2,3,3.171265e-01,0,1,Left,Right,Left,Vertical,Foil primed,Left,None,Main study,C
4,1,7,2,5.000000e-02,9.048374e-02,1.809675e+00,76,45,3.188283e-01,2.666558e-01,1.333792e-01,8.333947e-02,7.244293e-06,4.000000e-01,134,0,3,0,0,2,3,3.670736e-01,1,0,Right,Left,Left,Vertical,Target primed,Left,None,Main study,C
4,1,7,2,5.000000e-02,9.048374e-02,1.809675e+00,76,55,3.106320e-01,3.666857e-01,3.335046e-02,8.335909e-02,6.942544e-06,4.000000e-01,34,0,2,1,1,2,3,1.087179e-01,0,0,Left,Left,Right,Vertical,Foil primed,Right,None,Main study,C
4,1,7,2,5.000000e-02,9.048374e-02,1.809675e+00,76,40,3.107833e-01,3.667102e-01,3.332722e-02,8.333675e-02,7.244060e-06,4.000000e-01,34,0,2,1,1,2,3,1.503775e-01,0,0,Left,Left,Right,Vertical,Foil primed,Right,None,Main study,C
4,1,7,2,5.000000e-02,9.048374e-02,1.809675e+00,76,35,3.173864e-01,3.917191e-01,8.318825e-03,8.333736e-02,6.942311e-06,4.000000e-01,8,1,2,0,0,2,3,1.754074e-01,0,1,Left,Right,Left,Vertical,Foil primed,Left,None,Main study,C
4,1,7,2,5.000000e-02,9.048374e-02,1.809675e+00,76,45,3.108814e-01,3.666978e-01,3.333959e-02,8.335456e-02,6.942544e-06,4.000000e-01,34,0,3,0,0,2,3,1.754101e-01,1,0,Right,Left,Left,Vertical,Target primed,Left,None,Main study,C
4,1,7,2,5.000000e-02,9.048374e-02,1.809675e+00,76,40,3.106417e-01,3.917376e-01,8.316410e-03,8.334702e-02,7.244060e-06,4.000000e-01,8,0,3,0,0,2,3,1.253954e-01,1,0,Right,Left,Left,Vertical,Target primed,Left,None,Main study,C
4,1,7,2,5.000000e-02,9.048374e-02,1.809675e+00,76,35,3.108747e-01,3.666896e-01,3.333597e-02,8.334279e-02,7.244293e-06,4.000000e-01,34,1,3,1,1,2,3,1.921401e-01,1,1,Right,Right,Right,Vertical,Target primed,Right,None,Main study,C
4,1,7,2,5.000000e-02,9.048374e-02,1.809675e+00,76,40,3.109007e-01,3.666667e-01,3.333416e-02,8.336362e-02,7.244293e-06,4.000000e-01,34,1,2,0,0,2,3,2.004049e-01,0,1,Left,Right,Left,Vertical,Foil primed,Left,None,Main study,C
4,1,7,2,5.000000e-02,9.048374e-02,1.809675e+00,76,35,3.107389e-01,3.667011e-01,3.333657e-02,8.336996e-02,7.244293e-06,4.000000e-01,34,0,3,0,0,2,3,1.337477e-01,1,0,Right,Left,Left,Vertical,Target primed,Left,None,Main study,C
4,1,7,2,5.000000e-02,9.048374e-02,1.809675e+00,76,55,3.106064e-01,2.667173e-01,1.333698e-01,8.331532e-02,7.244293e-06,4.000000e-01,134,1,3,1,1,2,3,1.754345e-01,1,1,Right,Right,Right,Vertical,Target primed,Right,None,Main study,C
4,1,7,2,5.000000e-02,9.048374e-02,1.809675e+00,76,45,3.109888e-01,3.916998e-01,8.339350e-03,8.335456e-02,7.546041e-06,4.000000e-01,8,0,2,1,1,2,3,1.837500e-01,0,0,Left,Left,Right,Vertical,Foil primed,Right,None,Main study,C
4,1,7,2,5.000000e-02,9.048374e-02,1.809675e+00,76,35,3.108711e-01,3.667147e-01,3.331665e-02,8.334430e-02,7.244293e-06,4.000000e-01,34,1,2,0,0,2,3,2.420663e-01,1,0,Right,Right,Left,Vertical,Foil primed,Left,None,Main study,C
4,1,7,2,5.000000e-02,9.048374e-02,1.809675e+00,76,45,3.105201e-01,3.666824e-01,3.333506e-02,8.335426e-02,7.244293e-06,4.000000e-01,34,0,3,0,0,2,3,2.254459e-01,1,0,Right,Left,Left,Vertical,Target primed,Left,None,Main study,C
4,1,7,2,5.000000e-02,9.048374e-02,1.809675e+00,76,55,3.107135e-01,3.667307e-01,3.333959e-02,8.334189e-02,7.546274e-06,4.000000e-01,34,1,3,1,1,2,3,3.587273e-01,1,1,Right,Right,Right,Vertical,Target primed,Right,None,Main study,C
4,1,7,2,5.000000e-02,9.048374e-02,1.809675e+00,76,50,3.107428e-01,3.666966e-01,3.334291e-02,8.331563e-02,7.244293e-06,4.000000e-01,34,1,3,1,1,2,3,2.754524e-01,0,0,Left,Right,Right,Vertical,Target primed,Right,None,Main study,C
4,1,7,2,5.000000e-02,9.048374e-02,1.809675e+00,76,35,3.107700e-01,3.917379e-01,8.324560e-03,8.334762e-02,7.244293e-06,4.000000e-01,8,0,3,0,0,2,3,3.504242e-01,0,1,Left,Left,Left,Vertical,Target primed,Left,None,Main study,C
4,1,7,2,5.000000e-02,9.048374e-02,1.809675e+00,76,55,3.106121e-01,3.666984e-01,3.333929e-02,8.335245e-02,7.244293e-06,4.000000e-01,34,1,2,0,0,2,3,4.170665e-01,0,1,Left,Right,Left,Vertical,Foil primed,Left,None,Main study,C
4,1,7,2,5.000000e-02,9.048374e-02,1.809675e+00,76,50,3.107543e-01,2.666872e-01,1.333487e-01,8.334822e-02,7.244293e-06,4.000000e-01,134,0,2,1,1,2,3,5.504300e-01,1,1,Right,Left,Right,Vertical,Foil primed,Right,None,Main study,C
4,1,7,2,5.000000e-02,9.048374e-02,1.809675e+00,76,55,3.188328e-01,2.666736e-01,1.333460e-01,8.336000e-02,7.848023e-06,4.000000e-01,134,0,2,1,1,2,3,4.420960e-01,1,1,Right,Left,Right,Vertical,Foil primed,Right,None,Main study,C
4,1,7,2,5.000000e-02,9.048374e-02,1.809675e+00,76,55,3.189859e-01,3.916271e-01,8.362290e-03,8.331140e-02,7.244293e-06,4.000000e-01,8,1,2,0,0,2,3,4.004790e-01,0,1,Left,Right,Left,Vertical,Foil primed,Left,None,Main study,C
4,1,7,2,5.000000e-02,9.048374e-02,1.809675e+00,76,45,3.190019e-01,3.666857e-01,3.335046e-02,8.332528e-02,7.244293e-06,4.000000e-01,34,1,2,0,0,2,3,2.254157e-01,1,0,Right,Right,Left,Vertical,Foil primed,Left,None,Main study,C
4,1,7,2,5.000000e-02,9.048374e-02,1.809675e+00,76,35,3.109134e-01,3.666800e-01,3.332450e-02,8.333857e-02,7.244293e-06,4.000000e-01,34,1,2,0,0,2,3,3.838190e-01,0,1,Left,Right,Left,Vertical,Foil primed,Left,None,Main study,C
4,1,7,2,5.000000e-02,9.048374e-02,1.809675e+00,76,55,3.107821e-01,3.667014e-01,3.334593e-02,8.333645e-02,7.244293e-06,4.000000e-01,34,1,2,0,0,2,3,3.587925e-01,1,0,Right,Right,Left,Vertical,Foil primed,Left,None,Main study,C
4,1,7,2,5.000000e-02,9.048374e-02,1.809675e+00,76,45,3.107805e-01,3.916905e-01,8.355650e-03,8.334702e-02,7.244293e-06,4.000000e-01,8,1,3,1,1,2,3,3.004514e-01,1,1,Right,Right,Right,Vertical,Target primed,Right,None,Main study,C
4,1,7,2,5.000000e-02,9.048374e-02,1.809675e+00,76,55,3.108400e-01,2.667219e-01,1.333493e-01,8.328725e-02,7.546041e-06,4.000000e-01,134,0,2,1,1,2,3,4.754634e-01,0,0,Left,Left,Right,Vertical,Foil primed,Right,None,Main study,C
4,1,7,2,5.000000e-02,9.048374e-02,1.809675e+00,76,50,3.188316e-01,3.916509e-01,8.312184e-03,8.337569e-02,7.244293e-06,4.000000e-01,8,1,2,0,0,2,3,2.671517e-01,1,0,Right,Right,Left,Vertical,Foil primed,Left,None,Main study,C
4,1,7,2,5.000000e-02,9.048374e-02,1.809675e+00,76,55,3.107730e-01,2.667028e-01,1.333363e-01,8.333736e-02,6.942311e-06,4.000000e-01,134,1,2,0,0,2,3,5.920933e-01,0,1,Left,Right,Left,Vertical,Foil primed,Left,None,Main study,C
4,1,7,2,5.000000e-02,9.048374e-02,1.809675e+00,76,40,3.188162e-01,2.667092e-01,1.333520e-01,8.334189e-02,7.244293e-06,4.000000e-01,134,1,2,0,0,2,3,5.254352e-01,0,1,Left,Right,Left,Vertical,Foil primed,Left,None,Main study,C
4,1,7,2,5.000000e-02,9.048374e-02,1.809675e+00,76,55,3.188869e-01,3.666857e-01,3.333205e-02,8.331080e-02,7.546041e-06,4.000000e-01,34,0,3,0,0,2,3,5.421302e-01,0,1,Left,Left,Left,Vertical,Target primed,Left,None,Main study,C
4,1,7,2,5.000000e-02,9.048374e-02,1.809675e+00,76,50,3.106900e-01,3.917361e-01,8.355650e-03,8.331623e-02,6.942311e-06,4.000000e-01,8,1,2,0,0,2,3,4.171118e-01,1,0,Right,Right,Left,Vertical,Foil primed,Left,None,Main study,C
4,1,7,2,5.000000e-02,9.048374e-02,1.809675e+00,76,55,3.107401e-01,3.916808e-01,8.381910e-03,8.330204e-02,7.244293e-06,4.000000e-01,8,1,2,0,0,2,3,5.671024e-01,0,1,Left,Right,Left,Vertical,Foil primed,Left,None,Main study,C
4,1,7,2,5.000000e-02,9.048374e-02,1.809675e+00,76,35,3.188443e-01,2.666914e-01,1.333351e-01,8.335547e-02,7.546274e-06,4.000000e-01,134,0,3,0,0,2,3,7.504392e-01,0,1,Left,Left,Left,Vertical,Target primed,Left,None,Main study,C
4,1,7,2,5.000000e-02,9.048374e-02,1.809675e+00,76,45,3.187882e-01,3.667431e-01,3.332540e-02,8.333736e-02,7.244293e-06,4.000000e-01,34,1,3,1,1,2,3,3.504006e-01,1,1,Right,Right,Right,Vertical,Target primed,Right,None,Main study,C
4,1,7,2,5.000000e-02,9.048374e-02,1.809675e+00,76,50,3.189318e-01,2.666428e-01,1.333967e-01,8.333585e-02,6.942311e-06,4.000000e-01,134,1,3,1,1,2,3,5.588038e-01,0,0,Left,Right,Right,Vertical,Target primed,Right,None,Main study,C
4,1,7,2,5.000000e-02,9.048374e-02,1.809675e+00,76,55,3.169997e-01,3.666839e-01,3.334170e-02,8.334521e-02,6.942311e-06,4.000000e-01,34,0,2,1,1,2,3,4.254062e-01,1,1,Right,Left,Right,Vertical,Foil primed,Right,None,Main study,C
4,1,7,2,5.000000e-02,9.048374e-02,1.809675e+00,76,35,3.189672e-01,3.917131e-01,8.306147e-03,8.334641e-02,7.244293e-06,4.000000e-01,8,1,2,0,0,2,3,4.420900e-01,0,1,Left,Right,Left,Vertical,Foil primed,Left,None,Main study,C
4,1,7,2,5.000000e-02,9.048374e-02,1.809675e+00,76,40,3.107012e-01,2.667053e-01,1.333312e-01,8.334098e-02,7.244293e-06,4.000000e-01,134,1,3,1,1,2,3,6.920957e-01,0,0,Left,Right,Right,Vertical,Target primed,Right,None,Main study,C
4,1,7,2,5.000000e-02,9.048374e-02,1.809675e+00,76,45,3.107024e-01,2.666455e-01,1.333490e-01,8.333917e-02,7.546274e-06,4.000000e-01,134,1,2,0,0,2,3,3.837782e-01,0,1,Left,Right,Left,Vertical,Foil primed,Left,None,Main study,C
4,1,7,2,5.000000e-02,9.048374e-02,1.809675e+00,76,55,3.106175e-01,3.917527e-01,8.316108e-03,8.333645e-02,7.546274e-06,4.000000e-01,8,0,2,1,1,2,3,4.004246e-01,1,1,Right,Left,Right,Vertical,Foil primed,Right,None,Main study,C
4,1,7,2,5.000000e-02,9.048374e-02,1.809675e+00,76,35,3.188564e-01,3.667322e-01,3.334865e-02,8.333675e-02,7.244293e-06,4.000000e-01,34,1,2,0,0,2,3,4.837922e-01,0,1,Left,Right,Left,Vertical,Foil primed,Left,None,Main study,C
4,1,7,2,5.000000e-02,9.048374e-02,1.809675e+00,76,55,3.107999e-01,3.916521e-01,8.350518e-03,8.332347e-02,7.244293e-06,4.000000e-01,8,0,2,1,1,2,3,3.921508e-01,1,1,Right,Left,Right,Vertical,Foil primed,Right,None,Main study,C
4,1,7,2,5.000000e-02,9.048374e-02,1.809675e+00,76,45,3.108041e-01,3.916790e-01,8.345387e-03,8.334792e-02,6.942311e-06,4.000000e-01,8,0,2,1,1,2,3,6.671335e-01,1,1,Right,Left,Right,Vertical,Foil primed,Right,None,Main study,C
4,1,7,2,5.000000e-02,9.048374e-02,1.809675e+00,76,45,3.188503e-01,2.666938e-01,1.333454e-01,8.331563e-02,7.244293e-06,4.000000e-01,134,0,2,1,1,2,3,7.504763e-01,0,0,Left,Left,Right,Vertical,Foil primed,Right,None,Main study,C
4,1,7,2,5.000000e-02,9.048374e-02,1.809675e+00,76,55,3.188718e-01,2.666675e-01,1.333004e-01,8.337599e-02,6.942311e-06,4.000000e-01,134,1,2,0,0,2,3,6.004595e-01,0,1,Left,Right,Left,Vertical,Foil primed,Left,None,Main study,C
4,1,7,2,5.000000e-02,9.048374e-02,1.809675e+00,76,50,3.188337e-01,2.667191e-01,1.333593e-01,8.332830e-02,7.546041e-06,4.000000e-01,134,0,3,0,0,2,3,7.504621e-01,0,1,Left,Left,Left,Vertical,Target primed,Left,None,Main study,C
4,1,7,2,5.000000e-02,9.048374e-02,1.809675e+00,76,45,3.188549e-01,3.917004e-01,8.337841e-03,8.336000e-02,7.244293e-06,4.000000e-01,8,1,3,1,1,2,3,5.421127e-01,0,0,Left,Right,Right,Vertical,Target primed,Right,None,Main study,C
4,1,8,2,5.000000e-02,9.048374e-02,1.809675e+00,76,40,3.136556e-01,3.666821e-01,3.330911e-02,8.335094e-02,7.244293e-06,4.000000e-01,34,1,2,0,0,2,3,2.751472e-01,1,0,Right,Right,Left,Vertical,Foil primed,Left,None,Main study,C
4,1,8,2,5.000000e-02,9.048374e-02,1.809675e+00,76,40,3.189379e-01,3.917001e-01,8.325767e-03,8.334732e-02,7.244293e-06,4.000000e-01,8,0,3,0,0,2,3,3.337445e-01,0,1,Left,Left,Left,Vertical,Target primed,Left,None,Main study,C
4,1,8,2,5.000000e-02,9.048374e-02,1.809675e+00,76,50,3.189210e-01,3.667074e-01,3.331695e-02,8.335939e-02,7.244293e-06,4.000000e-01,34,1,3,1,1,2,3,2.837549e-01,1,1,Right,Right,Right,Vertical,Target primed,Right,None,Main study,C
4,1,8,2,5.000000e-02,9.048374e-02,1.809675e+00,76,50,3.107703e-01,2.666585e-01,1.334583e-01,8.322658e-02,7.546041e-06,4.000000e-01,134,1,3,1,1,2,3,4.087902e-01,0,0,Left,Right,Right,Vertical,Target primed,Right,None,Main study,C
4,1,8,2,5.000000e-02,9.048374e-02,1.809675e+00,76,50,3.107911e-01,3.666990e-01,3.334050e-02,8.336151e-02,7.244293e-06,4.000000e-01,34,0,2,1,1,2,3,3.920789e-01,1,1,Right,Left,Right,Vertical,Foil primed,Right,None,Main study,C
4,1,8,2,5.000000e-02,9.048374e-02,1.809675e+00,76,55,3.106631e-01,2.666579e-01,1.333807e-01,8.334189e-02,7.244060e-06,4.000000e-01,134,0,3,0,0,2,3,6.921027e-01,0,1,Left,Left,Left,Vertical,Target primed,Left,None,Main study,C
4,1,8,2,5.000000e-02,9.048374e-02,1.809675e+00,76,55,3.188715e-01,3.666742e-01,3.332088e-02,8.333706e-02,7.244060e-06,4.000000e-01,34,0,3,0,0,2,3,5.254720e-01,1,0,Right,Left,Left,Vertical,Target primed,Left,None,Main study,C
4,1,8,2,5.000000e-02,9.048374e-02,1.809675e+00,76,35,3.189044e-01,3.667310e-01,3.334563e-02,8.333072e-02,7.244060e-06,4.000000e-01,34,1,2,0,0,2,3,4.087519e-01,0,1,Left,Right,Left,Vertical,Foil primed,Left,None,Main study,C
4,1,8,2,5.000000e-02,9.048374e-02,1.809675e+00,76,40,3.108062e-01,3.916702e-01,8.364101e-03,8.332076e-02,7.244293e-06,4.000000e-01,8,0,3,0,0,2,3,5.837690e-01,0,1,Left,Left,Left,Vertical,Target primed,Left,None,Main study,C
4,1,8,2,5.000000e-02,9.048374e-02,1.809675e+00,76,50,3.188105e-01,2.666823e-01,1.333916e-01,8.331351e-02,7.244293e-06,4.000000e-01,134,1,3,1,1,2,3,5.754414e-01,1,1,Right,Right,Right,Vertical,Target primed,Right,None,Main study,C
4,1,8,2,5.000000e-02,9.048374e-02,1.809675e+00,76,50,3.188956e-01,3.916733e-01,8.326673e-03,8.333736e-02,7.546041e-06,4.000000e-01,8,1,2,0,0,2,3,4.337697e-01,0,1,Left,Right,Left,Vertical,Foil primed,Left,None,Main study,C
4,1,8,2,5.000000e-02,9.048374e-02,1.809675e+00,76,40,3.189732e-01,2.666727e-01,1.333424e-01,8.330597e-02,7.244293e-06,4.000000e-01,134,1,2,0,0,2,3,5.171336e-01,0,1,Left,Right,Left,Vertical,Foil primed,Left,None,Main study,C
4,1,8,2,5.000000e-02,9.048374e-02,1.809675e+00,76,35,3.189403e-01,2.666998e-01,1.332929e-01,8.340256e-02,7.244293e-06,4.000000e-01,134,1,3,1,1,2,3,6.754502e-01,1,1,Right,Right,Right,Vertical,Target primed,Right,None,Main study,C
4,1,8,2,5.000000e-02,9.048374e-02,1.809675e+00,76,35,3.189011e-01,3.917137e-01,8.328182e-03,8.333253e-02,6.942544e-06,4.000000e-01,8,1,2,0,0,2,3,4.337331e-01,0,1,Left,Right,Left,Vertical,Foil primed,Left,None,Main study,C
4,1,8,2,5.000000e-02,9.048374e-02,1.809675e+00,76,40,3.106812e-01,3.666543e-01,3.335016e-02,8.334098e-02,7.244293e-06,4.000000e-01,34,1,3,1,1,2,3,3.921134e-01,1,1,Right,Right,Right,Vertical,Target primed,Right,None,Main study,C
4,1,8,2,5.000000e-02,9.048374e-02,1.809675e+00,76,35,3.172107e-01,2.666835e-01,1.333695e-01,8.330385e-02,7.847790e-06,4.000000e-01,134,0,3,0,0,2,3,5.004848e-01,0,1,Left,Left,Left,Vertical,Target primed,Left,None,Main study,C
4,1,8,2,5.000000e-02,9.048374e-02,1.809675e+00,76,40,3.107238e-01,3.667077e-01,3.330911e-02,8.334973e-02,7.244293e-06,4.000000e-01,34,1,2,0,0,2,3,5.337764e-01,0,1,Left,Right,Left,Vertical,Foil primed,Left,None,Main study,C
4,1,8,2,5.000000e-02,9.048374e-02,1.809675e+00,76,45,3.187145e-01,3.667663e-01,3.327228e-02,8.333494e-02,7.546274e-06,4.000000e-01,34,0,3,0,0,2,3,5.421387e-01,0,1,Left,Left,Left,Vertical,Target primed,Left,None,Main study,C
4,1,8,2,5.000000e-02,9.048374e-02,1.809675e+00,76,55,3.106571e-01,3.667035e-01,3.343558e-02,8.329178e-02,9.055249e-06,4.000000e-01,34,1,3,1,1,2,3,3.587206e-01,1,1,Right,Right,Right,Vertical,Target primed,Right,None,Main study,C
4,1,8,2,5.000000e-02,9.048374e-02,1.809675e+00,76,35,3.106508e-01,3.667174e-01,3.330126e-02,8.331200e-02,7.244293e-06,4.000000e-01,34,1,2,0,0,2,3,3.421268e-01,0,1,Left,Right,Left,Vertical,Foil primed,Left,None,Main study,C
4,1,8,2,5.000000e-02,9.048374e-02,1.809675e+00,76,55,3.107066e-01,2.667207e-01,1.333191e-01,8.332438e-02,7.546274e-06,4.000000e-01,134,1,2,0,0,2,3,6.504769e-01,0,1,Left,Right,Left,Vertical,Foil primed,Left,None,Main study,C
4,1,8,2,5.000000e-02,9.048374e-02,1.809675e+00,76,35,3.188368e-01,3.917309e-01,8.326069e-03,8.333736e-02,7.244293e-06,4.000000e-01,8,1,2,0,0,2,3,4.421268e-01,0,1,Left,Right,Left,Vertical,Foil primed,Left,None,Main study,C
4,1,8,2,5.000000e-02,9.048374e-02,1.809675e+00,76,40,3.107238e-01,2.667146e-01,1.333662e-01,8.328967e-02,7.847790e-06,4.000000e-01,134,0,2,1,1,2,3,5.171109e-01,0,0,Left,Left,Right,Vertical,Foil primed,Right,None,Main study,C
4,1,8,2,5.000000e-02,9.048374e-02,1.809675e+00,76,50,3.184730e-01,2.666914e-01,1.333611e-01,8.332619e-02,7.244293e-06,4.000000e-01,134,1,2,0,0,2,3,8.171679e-01,1,0,Right,Right,Left,Vertical,Foil primed,Left,None,Main study,C
4,1,8,2,5.000000e-02,9.048374e-02,1.809675e+00,76,55,3.185678e-01,3.667210e-01,3.333718e-02,8.331834e-02,7.848023e-06,4.000000e-01,34,0,3,0,0,2,3,5.004383e-01,1,0,Right,Left,Left,Vertical,Target primed,Left,None,Main study,C
4,1,8,2,5.000000e-02,9.048374e-02,1.809675e+00,76,40,3.107661e-01,3.666776e-01,3.333989e-02,8.332740e-02,7.244293e-06,4.000000e-01,34,0,2,1,1,2,3,4.087586e-01,1,1,Right,Left,Right,Vertical,Foil primed,Right,None,Main study,C
4,1,8,2,5.000000e-02,9.048374e-02,1.809675e+00,76,55,3.107244e-01,3.666682e-01,3.333597e-02,8.333796e-02,7.244060e-06,4.000000e-01,34,1,2,0,0,2,3,4.087827e-01,0,1,Left,Right,Left,Vertical,Foil primed,Left,None,Main study,C
4,1,8,2,5.000000e-02,9.048374e-02,1.809675e+00,76,40,3.105816e-01,2.667297e-01,1.333502e-01,8.337992e-02,7.546041e-06,4.000000e-01,134,1,2,0,0,2,3,4.670561e-01,0,1,Left,Right,Left,Vertical,Foil primed,Left,None,Main study,C
4,1,8,2,5.000000e-02,9.048374e-02,1.809675e+00,76,55,3.107319e-01,3.917007e-01,8.336935e-03,8.333585e-02,7.244060e-06,4.000000e-01,8,1,2,0,0,2,3,4.421138e-01,0,1,Left,Right,Left,Vertical,Foil primed,Left,None,Main study,C
4,1,8,2,5.000000e-02,9.048374e-02,1.809675e+00,76,35,3.188570e-01,3.917578e-01,8.320334e-03,8.335094e-02,7.546041e-06,4.000000e-01,8,0,3,0,0,2,3,3.670693e-01,0,1,Left,Left,Left,Vertical,Target primed,Left,None,Main study,C
4,1,8,2,5.000000e-02,9.048374e-02,1.809675e+00,76,55,3.107606e-01,3.917294e-01,8.304638e-03,8.336030e-02,6.942544e-06,4.000000e-01,8,0,3,0,0,2,3,3.003881e-01,0,1,Left,Left,Left,Vertical,Target primed,Left,None,Main study,C
4,1,8,2,5.000000e-02,9.048374e-02,1.809675e+00,76,35,3.106960e-01,3.917038e-01,8.396700e-03,8.322417e-02,7.244293e-06,4.000000e-01,8,0,2,1,1,2,3,4.004772e-01,1,1,Right,Left,Right,Vertical,Foil primed,Right,None,Main study,C
4,1,8,2,5.000000e-02,9.048374e-02,1.809675e+00,76,40,3.106145e-01,3.917179e-01,8.348707e-03,8.333736e-02,8.149771e-06,4.000000e-01,8,0,3,0,0,2,3,3.253980e-01,0,1,Left,Left,Left,Vertical,Target primed,Left,None,Main study,C
4,1,8,2,5.000000e-02,9.048374e-02,1.809675e+00,76,50,3.106323e-01,2.666878e-01,1.332823e-01,8.337116e-02,7.244293e-06,4.000000e-01,134,0,3,0,0,2,3,5.754731e-01,0,1,Left,Left,Left,Vertical,Target primed,Left,None,Main study,C
4,1,8,2,5.000000e-02,9.048374e-02,1.809675e+00,76,50,3.187809e-01,3.916693e-01,8.330295e-03,8.340467e-02,6.942311e-06,4.000000e-01,8,1,2,0,0,2,3,2.920602e-01,1,0,Right,Right,Left,Vertical,Foil primed,Left,None,Main study,C
4,1,8,2,5.000000e-02,9.048374e-02,1.809675e+00,76,45,3.107712e-01,2.667243e-01,1.333493e-01,8.330144e-02,7.244060e-06,4.000000e-01,134,1,3,1,1,2,3,4.754546e-01,0,0,Left,Right,Right,Vertical,Target primed,Right,None,Main study,C
4,1,8,2,5.000000e-02,9.048374e-02,1.809675e+00,76,55,3.107706e-01,3.916736e-01,8.313693e-03,8.336573e-02,7.244293e-06,4.000000e-01,8,0,3,0,0,2,3,4.087915e-01,1,0,Right,Left,Left,Vertical,Target primed,Left,None,Main study,C
4,1,8,2,5.000000e-02,9.048374e-02,1.809675e+00,76,50,3.107009e-01,2.666905e-01,1.333430e-01,8.333977e-02,7.546041e-06,4.000000e-01,134,1,2,0,0,2,3,4.254354e-01,0,1,Left,Right,Left,Vertical,Foil primed,Left,None,Main study,C
4,1,8,2,5.000000e-02,9.048374e-02,1.809675e+00,76,40,3.107160e-01,3.666576e-01,3.333838e-02,8.333977e-02,7.546041e-06,4.000000e-01,34,0,2,1,1,2,3,4.004651e-01,1,1,Right,Left,Right,Vertical,Foil primed,Right,None,Main study,C
4,1,8,2,5.000000e-02,9.048374e-02,1.809675e+00,76,35,3.189210e-01,3.667023e-01,3.334623e-02,8.332498e-02,7.546041e-06,4.000000e-01,34,0,2,1,1,2,3,4.254632e-01,1,1,Right,Left,Right,Vertical,Foil primed,Right,None,Main study,C
4,1,8,2,5.000000e-02,9.048374e-02,1.809675e+00,76,55,3.188814e-01,2.666808e-01,1.333584e-01,8.332891e-02,7.848023e-06,4.000000e-01,134,0,2,1,1,2,3,4.087368e-01,1,1,Right,Left,Right,Vertical,Foil primed,Right,None,Main study,C
4,1,8,2,5.000000e-02,9.048374e-02,1.809675e+00,76,40,3.104367e-01,2.666769e-01,1.333668e-01,8.333736e-02,7.244293e-06,4.000000e-01,134,1,3,1,1,2,3,4.171142e-01,0,0,Left,Right,Right,Vertical,Target primed,Right,None,Main study,C
4,1,8,2,5.000000e-02,9.048374e-02,1.809675e+00,76,35,3.106815e-01,2.666573e-01,1.333819e-01,8.335758e-02,7.244293e-06,4.000000e-01,134,0,2,1,1,2,3,4.170855e-01,1,1,Right,Left,Right,Vertical,Foil primed,Right,None,Main study,C
4,1,8,2,5.000000e-02,9.048374e-02,1.809675e+00,76,45,3.106317e-01,3.667467e-01,3.331122e-02,8.337237e-02,7.244293e-06,4.000000e-01,34,0,3,0,0,2,3,5.004250e-01,0,1,Left,Left,Left,Vertical,Target primed,Left,None,Main study,C
4,1,8,2,5.000000e-02,9.048374e-02,1.809675e+00,76,55,3.106127e-01,3.666667e-01,3.334442e-02,8.333464e-02,7.244293e-06,4.000000e-01,34,1,3,1,1,2,3,3.421268e-01,1,1,Right,Right,Right,Vertical,Target primed,Right,None,Main study,C
4,1,8,2,5.000000e-02,9.048374e-02,1.809675e+00,76,40,3.107938e-01,2.666702e-01,1.333680e-01,8.332619e-02,7.244293e-06,4.000000e-01,134,0,2,1,1,2,3,4.004370e-01,1,1,Right,Left,Right,Vertical,Foil primed,Right,None,Main study,C
4,1,8,2,5.000000e-02,9.048374e-02,1.809675e+00,76,40,3.107633e-01,3.917620e-01,8.337237e-03,8.327548e-02,7.244293e-06,4.000000e-01,8,1,2,0,0,2,3,3.754196e-01,0,1,Left,Right,Left,Vertical,Foil primed,Left,None,Main study,C
4,1,8,2,5.000000e-02,9.048374e-02,1.809675e+00,76,55,3.189970e-01,3.667102e-01,3.333718e-02,8.334521e-02,7.244060e-06,4.000000e-01,34,0,3,0,0,2,3,4.587467e-01,1,0,Right,Left,Left,Vertical,Target primed,Left,None,Main study,C
4,1,8,2,5.000000e-02,9.048374e-02,1.809675e+00,76,50,3.106634e-01,2.667252e-01,1.333403e-01,8.333736e-02,7.244293e-06,4.000000e-01,134,0,2,1,1,2,3,4.920733e-01,1,1,Right,Left,Right,Vertical,Foil primed,Right,None,Main study,C
4,1,8,2,5.000000e-02,9.048374e-02,1.809675e+00,76,35,3.106680e-01,3.666990e-01,3.332661e-02,8.339169e-02,7.244060e-06,4.000000e-01,34,0,2,1,1,2,3,4.504127e-01,1,1,Right,Left,Right,Vertical,Foil primed,Right,None,Main study,C
4,1,8,2,5.000000e-02,9.048374e-02,1.809675e+00,76,35,3.189321e-01,3.917222e-01,8.336935e-03,8.333585e-02,6.942544e-06,4.000000e-01,8,1,2,0,0,2,3,3.670751e-01,0,1,Left,Right,Left,Vertical,Foil primed,Left,None,Main study,C
4,1,8,2,5.000000e-02,9.048374e-02,1.809675e+00,76,40,3.189717e-01,2.666787e-01,1.333493e-01,8.333706e-02,6.942311e-06,4.000000e-01,134,0,2,1,1,2,3,4.171051e-01,1,1,Right,Left,Right,Vertical,Foil primed,Right,None,Main study,C
4,1,8,2,5.000000e-02,9.048374e-02,1.809675e+00,76,40,3.106417e-01,3.916440e-01,8.350820e-03,8.333102e-02,7.244293e-06,4.000000e-01,8,1,3,1,1,2,3,4.338041e-01,1,1,Right,Right,Right,Vertical,Target primed,Right,None,Main study,C
4,1,8,2,5.000000e-02,9.048374e-02,1.809675e+00,76,55,3.107307e-01,3.666920e-01,3.335951e-02,8.331563e-02,6.942311e-06,4.000000e-01,34,0,2,1,1,2,3,3.837429e-01,1,1,Right,Left,Right,Vertical,Foil primed,Right,None,Main study,C
4,1,8,2,5.000000e-02,9.048374e-02,1.809675e+00,76,40,3.188217e-01,2.666959e-01,1.332920e-01,8.336120e-02,7.244293e-06,4.000000e-01,134,0,2,1,1,2,3,4.337835e-01,1,1,Right,Left,Right,Vertical,Foil primed,Right,None,Main study,C
4,1,8,2,5.000000e-02,9.048374e-02,1.809675e+00,76,45,3.189539e-01,3.917385e-01,8.285018e-03,8.331321e-02,7.244293e-06,4.000000e-01,8,1,3,1,1,2,3,3.588227e-01,1,1,Right,Right,Right,Vertical,Target primed,Right,None,Main study,C
4,1,8,2,5.000000e-02,9.048374e-02,1.809675e+00,76,35,3.188848e-01,3.667334e-01,3.332812e-02,8.334551e-02,7.546274e-06,4.000000e-01,34,1,2,0,0,2,3,4.338092e-01,0,1,Left,Right,Left,Vertical,Foil primed,Left,None,Main study,C
4,1,8,2,5.000000e-02,9.048374e-02,1.809675e+00,76,35,3.107926e-01,3.916965e-01,8.337237e-03,8.342851e-02,9.357231e-06,4.000000e-01,8,0,3,0,0,2,3,3.753568e-01,0,1,Left,Left,Left,Vertical,Target primed,Left,None,Main study,C
4,1,8,2,5.000000e-02,9.048374e-02,1.809675e+00,76,35,3.188663e-01,3.916986e-01,8.348104e-03,8.332740e-02,6.942544e-06,4.000000e-01,8,1,2,0,0,2,3,4.337512e-01,0,1,Left,Right,Left,Vertical,Foil primed,Left,None,Main study,C
4,1,8,2,5.000000e-02,9.048374e-02,1.809675e+00,76,45,3.106649e-01,3.917068e-01,8.336935e-03,8.337086e-02,7.244293e-06,4.000000e-01,8,1,3,1,1,2,3,2.670841e-01,1,1,Right,Right,Right,Vertical,Target primed,Right,None,Main study,C
4,1,9,2,5.000000e-02,9.048374e-02,1.809675e+00,76,55,3.181860e-01,2.667210e-01,1.333288e-01,8.331713e-02,7.848023e-06,4.000000e-01,134,0,2,1,1,2,3,3.501253e-01,1,1,Right,Left,Right,Vertical,Foil primed,Right,None,Main study,C
4,1,9,2,5.000000e-02,9.048374e-02,1.809675e+00,76,50,3.108307e-01,2.666238e-01,1.333816e-01,8.333645e-02,7.244293e-06,4.000000e-01,134,1,2,0,0,2,3,3.420773e-01,0,1,Left,Right,Left,Vertical,Foil primed,Left,None,Main study,C
4,1,9,2,5.000000e-02,9.048374e-02,1.809675e+00,76,45,3.106846e-01,3.667304e-01,3.329914e-02,8.334551e-02,6.942544e-06,4.000000e-01,34,1,3,1,1,2,3,3.087748e-01,1,1,Right,Right,Right,Vertical,Target primed,Right,None,Main study,C
4,1,9,2,5.000000e-02,9.048374e-02,1.809675e+00,76,40,3.107075e-01,3.916841e-01,8.335728e-03,8.333766e-02,7.244060e-06,4.000000e-01,8,1,2,0,0,2,3,3.420908e-01,0,1,Left,Right,Left,Vertical,Foil primed,Left,None,Main study,C
4,1,9,2,5.000000e-02,9.048374e-02,1.809675e+00,76,35,3.107220e-01,3.916983e-01,8.346896e-03,8.332438e-02,7.546274e-06,4.000000e-01,8,1,3,1,1,2,3,2.587426e-01,1,1,Right,Right,Right,Vertical,Target primed,Right,None,Main study,C
4,1,9,2,5.000000e-02,9.048374e-02,1.809675e+00,76,40,3.108965e-01,3.666679e-01,3.335529e-02,8.331864e-02,7.244293e-06,4.000000e-01,34,1,2,0,0,2,3,3.337648e-01,1,0,Right,Right,Left,Vertical,Foil primed,Left,None,Main study,C
4,1,9,2,5.000000e-02,9.048374e-02,1.809675e+00,76,55,3.107223e-01,2.666890e-01,1.333481e-01,8.330929e-02,7.847790e-06,4.000000e-01,134,0,2,1,1,2,3,3.504486e-01,1,1,Right,Left,Right,Vertical,Foil primed,Right,None,Main study,C
4,1,9,2,5.000000e-02,9.048374e-02,1.809675e+00,76,45,3.107546e-01,3.917276e-01,8.310675e-03,8.332287e-02,7.546041e-06,4.000000e-01,8,0,3,0,0,2,3,2.837549e-01,0,1,Left,Left,Left,Vertical,Target primed,Left,None,Main study,C
4,1,9,2,5.000000e-02,9.048374e-02,1.809675e+00,76,45,3.105080e-01,3.917035e-01,8.290451e-03,8.334702e-02,7.244293e-06,4.000000e-01,8,0,2,1,1,2,3,3.587729e-01,1,1,Right,Left,Right,Vertical,Foil primed,Right,None,Main study,C
