Subject,Trial,Block,Block_type,Foil_contrast,Target_contrast,Target_to_foil_contrast,Max_illuminance,Angle,Fixation_time,Placeholder_time,Prime_time,Target_time,Mask_time,Feedback_time,Prime_duration,Prime_rotation,Prime_type,Target_rotation,Correct_answer,Choice_rotation,Choice_display,RT,Choice,Accuracy,Choice_label,Prime_rotation_label,Target_rotation_label,Choice_rotation_label,Prime_type_label,Correct_answer_label,Onscreen_choices_labels,Block_type_label,Experiment
3,1,1,-2,5.000000e-02,2.500000e-01,5,76,45,1.776594e-02,3.996827e-01,1.000242e-01,2.833586e-01,7.244293e-06,4.000000e-01,100,2,1,0,0,2,3,1.413195e+00,0,1,Left,Vertical,Left,Vertical,Neither,Left,None,Guided practice,C
3,1,1,-2,5.000000e-02,2.500000e-01,5,76,55,1.731891e-02,4.000594e-01,1.000245e-01,2.833514e-01,6.942544e-06,4.000000e-01,100,2,1,0,0,2,3,2.182640e+00,0,1,Left,Vertical,Left,Vertical,Neither,Left,None,Guided practice,C
3,1,1,-2,5.000000e-02,2.500000e-01,5,76,45,1.700379e-02,3.999915e-01,9.997984e-02,2.834141e-01,7.244293e-06,4.000000e-01,100,2,1,0,0,2,3,7.672335e-01,0,1,Left,Vertical,Left,Vertical,Neither,Left,None,Guided practice,C
3,1,1,-2,5.000000e-02,2.500000e-01,5,76,50,1.836390e-02,4.000887e-01,9.998074e-02,2.833420e-01,7.848023e-06,4.000000e-01,100,2,1,0,0,2,3,5.504662e-01,0,1,Left,Vertical,Left,Vertical,Neither,Left,None,Guided practice,C
3,1,1,-2,5.000000e-02,2.500000e-01,5,76,45,1.857036e-02,4.000247e-01,1.000598e-01,2.833571e-01,6.942544e-06,4.000000e-01,100,2,1,1,1,2,3,6.587758e-01,1,1,Right,Vertical,Right,Vertical,Neither,Right,None,Guided practice,C
3,1,2,-1,5.000000e-02,2.500000e-01,5,76,35,3.144884e-01,3.000446e-01,1.000272e-01,8.333313e-02,7.244293e-06,4.000000e-01,100,2,1,0,0,2,3,6.421278e-01,0,1,Left,Vertical,Left,Vertical,Neither,Left,None,Exclusion practice,C
3,1,2,-1,5.000000e-02,2.500000e-01,5,76,50,3.186858e-01,3.000358e-01,9.999734e-02,8.338414e-02,6.942311e-06,4.000000e-01,100,2,1,1,1,2,3,7.337864e-01,0,0,Left,Vertical,Right,Vertical,Neither,Right,None,Exclusion practice,C
3,1,2,-1,5.000000e-02,2.500000e-01,5,76,40,3.188778e-01,3.000394e-01,1.000293e-01,8.333615e-02,7.244293e-06,4.000000e-01,100,2,1,0,0,2,3,7.254525e-01,0,1,Left,Vertical,Left,Vertical,Neither,Left,None,Exclusion practice,C
3,1,2,-1,5.000000e-02,2.500000e-01,5,76,45,3.189379e-01,3.000578e-01,1.000109e-01,8.331049e-02,7.546041e-06,4.000000e-01,100,2,1,1,1,2,3,4.754492e-01,1,1,Right,Vertical,Right,Vertical,Neither,Right,None,Exclusion practice,C
3,1,2,-1,5.000000e-02,2.500000e-01,5,76,45,3.106764e-01,2.999848e-01,1.000055e-01,8.344300e-02,9.055482e-06,4.000000e-01,100,2,1,1,1,2,3,6.337133e-01,1,1,Right,Vertical,Right,Vertical,Neither,Right,None,Exclusion practice,C
3,1,2,-1,5.000000e-02,2.500000e-01,5,76,50,3.189509e-01,3.000020e-01,1.000462e-01,8.326673e-02,7.244293e-06,4.000000e-01,100,2,1,0,0,2,3,6.588449e-01,0,1,Left,Vertical,Left,Vertical,Neither,Left,None,Exclusion practice,C
3,1,2,-1,5.000000e-02,2.500000e-01,5,76,35,3.187996e-01,3.000110e-01,1.000106e-01,8.333162e-02,7.546041e-06,4.000000e-01,100,2,1,0,0,2,3,5.671027e-01,0,1,Left,Vertical,Left,Vertical,Neither,Left,None,Exclusion practice,C
3,1,2,-1,5.000000e-02,2.500000e-01,5,76,35,3.106969e-01,3.000482e-01,1.000028e-01,8.335668e-02,7.244060e-06,4.000000e-01,100,2,1,1,1,2,3,4.420867e-01,1,1,Right,Vertical,Right,Vertical,Neither,Right,None,Exclusion practice,C
3,1,2,-1,5.000000e-02,2.500000e-01,5,76,40,3.107863e-01,2.999938e-01,1.000417e-01,8.333555e-02,7.244060e-06,4.000000e-01,100,2,1,0,0,2,3,5.170922e-01,0,1,Left,Vertical,Left,Vertical,Neither,Left,None,Exclusion practice,C
3,1,2,-1,5.000000e-02,2.500000e-01,5,76,35,3.106559e-01,3.000325e-01,9.999915e-02,8.334792e-02,7.244293e-06,4.000000e-01,100,2,1,0,0,2,3,4.420870e-01,0,1,Left,Vertical,Left,Vertical,Neither,Left,None,Exclusion practice,C
3,1,2,-1,5.000000e-02,2.500000e-01,5,76,50,3.106719e-01,3.000150e-01,1.000142e-01,8.333525e-02,7.546041e-06,4.000000e-01,100,2,1,1,1,2,3,3.920820e-01,1,1,Right,Vertical,Right,Vertical,Neither,Right,None,Exclusion practice,C
3,1,2,-1,5.000000e-02,2.500000e-01,5,76,45,3.107485e-01,3.000358e-01,1.000094e-01,8.333826e-02,7.244293e-06,4.000000e-01,100,2,1,0,0,2,3,4.171205e-01,0,1,Left,Vertical,Left,Vertical,Neither,Left,None,Exclusion practice,C
3,1,3,0,5.000000e-02,1.000000e-01,2,76,45,3.144612e-01,2.997481e-01,1.000127e-01,8.333736e-02,6.942311e-06,4.000000e-01,100,2,1,1,1,2,3,5.837364e-01,1,1,Right,Vertical,Right,Vertical,Neither,Right,None,Final training,C
3,1,3,0,5.000000e-02,1.000000e-01,2,76,55,3.188084e-01,2.999815e-01,1.000121e-01,8.336573e-02,7.244293e-06,4.000000e-01,100,2,1,0,0,2,3,5.087988e-01,0,1,Left,Vertical,Left,Vertical,Neither,Left,None,Final training,C
3,1,3,0,5.000000e-02,1.000000e-01,2,76,50,3.106607e-01,2.999893e-01,1.000254e-01,8.333826e-02,7.244060e-06,4.000000e-01,100,2,1,0,0,2,3,5.337915e-01,0,1,Left,Vertical,Left,Vertical,Neither,Left,None,Final training,C
3,1,3,0,5.000000e-02,1.000000e-01,2,76,45,3.106761e-01,2.999839e-01,1.000115e-01,8.339893e-02,7.244293e-06,4.000000e-01,100,2,1,1,1,2,3,4.754121e-01,1,1,Right,Vertical,Right,Vertical,Neither,Right,None,Final training,C
3,1,3,0,5.000000e-02,1.000000e-01,2,76,35,3.108044e-01,3.000153e-01,1.000396e-01,8.329993e-02,7.546041e-06,4.000000e-01,100,2,1,1,1,2,3,4.754583e-01,1,1,Right,Vertical,Right,Vertical,Neither,Right,None,Final training,C
3,1,3,0,5.000000e-02,1.000000e-01,2,76,55,3.188820e-01,3.000222e-01,1.000025e-01,8.335486e-02,6.942311e-06,4.000000e-01,100,2,1,0,0,2,3,5.504225e-01,0,1,Left,Vertical,Left,Vertical,Neither,Left,None,Final training,C
3,1,3,0,5.000000e-02,1.000000e-01,2,76,35,3.188609e-01,3.000276e-01,9.996837e-02,8.333464e-02,7.244060e-06,4.000000e-01,100,2,1,1,1,2,3,4.671412e-01,1,1,Right,Vertical,Right,Vertical,Neither,Right,None,Final training,C
3,1,3,0,5.000000e-02,1.000000e-01,2,76,55,3.187492e-01,3.000551e-01,1.000384e-01,8.331261e-02,7.244293e-06,4.000000e-01,100,2,1,1,1,2,3,5.254744e-01,1,1,Right,Vertical,Right,Vertical,Neither,Right,None,Final training,C
3,1,3,0,5.000000e-02,1.000000e-01,2,76,45,3.189328e-01,3.000237e-01,9.999915e-02,8.332891e-02,7.244293e-06,4.000000e-01,100,2,1,0,0,2,3,4.088129e-01,0,1,Left,Vertical,Left,Vertical,Neither,Left,None,Final training,C
3,1,3,0,5.000000e-02,1.000000e-01,2,76,55,3.107564e-01,2.999957e-01,1.000450e-01,8.335758e-02,7.244293e-06,4.000000e-01,100,2,1,1,1,2,3,4.420643e-01,1,1,Right,Vertical,Right,Vertical,Neither,Right,None,Final training,C
3,1,3,0,5.000000e-02,1.000000e-01,2,76,45,3.106646e-01,3.000280e-01,9.994120e-02,8.338263e-02,7.244293e-06,4.000000e-01,100,2,1,0,0,2,3,4.337760e-01,0,1,Left,Vertical,Left,Vertical,Neither,Left,None,Final training,C
3,1,3,0,5.000000e-02,1.000000e-01,2,76,50,3.106661e-01,3.000104e-01,1.000236e-01,8.334460e-02,6.942544e-06,4.000000e-01,100,2,1,0,0,2,3,4.087785e-01,0,1,Left,Vertical,Left,Vertical,Neither,Left,None,Final training,C
3,1,3,0,5.000000e-02,1.000000e-01,2,76,50,3.189850e-01,3.000240e-01,1.000004e-01,8.337660e-02,6.942311e-06,4.000000e-01,100,2,1,0,0,2,3,3.920578e-01,0,1,Left,Vertical,Left,Vertical,Neither,Left,None,Final training,C
3,1,3,0,5.000000e-02,1.000000e-01,2,76,40,3.107999e-01,3.000346e-01,1.000414e-01,8.333826e-02,6.942544e-06,4.000000e-01,100,2,1,0,0,2,3,4.337636e-01,0,1,Left,Vertical,Left,Vertical,Neither,Left,None,Final training,C
3,1,3,0,5.000000e-02,1.000000e-01,2,76,45,3.106565e-01,3.000252e-01,9.998074e-02,8.338113e-02,7.244293e-06,4.000000e-01,100,2,1,0,0,2,3,4.088005e-01,0,1,Left,Vertical,Left,Vertical,Neither,Left,None,Final training,C
3,1,3,0,5.000000e-02,1.000000e-01,2,76,40,3.189364e-01,3.000246e-01,1.000136e-01,8.333615e-02,7.244293e-06,4.000000e-01,100,2,1,1,1,2,3,4.420951e-01,1,1,Right,Vertical,Right,Vertical,Neither,Right,None,Final training,C
3,1,3,0,5.000000e-02,1.000000e-01,2,76,35,3.107419e-01,3.000056e-01,1.000242e-01,8.331683e-02,7.244293e-06,4.000000e-01,100,2,1,1,1,2,3,3.671442e-01,1,1,Right,Vertical,Right,Vertical,Neither,Right,None,Final training,C
3,1,3,0,5.000000e-02,1.000000e-01,2,76,40,3.189065e-01,3.000252e-01,1.000145e-01,8.326522e-02,7.244293e-06,4.000000e-01,100,2,1,1,1,2,3,4.254949e-01,0,0,Left,Vertical,Right,Vertical,Neither,Right,None,Final training,C
3,1,3,0,5.000000e-02,1.000000e-01,2,76,35,3.107374e-01,3.000150e-01,1.000218e-01,8.330838e-02,6.942311e-06,4.000000e-01,100,2,1,1,1,2,3,4.171012e-01,1,1,Right,Vertical,Right,Vertical,Neither,Right,None,Final training,C
3,1,3,0,5.000000e-02,1.000000e-01,2,76,40,3.105644e-01,2.999603e-01,9.999915e-02,8.337539e-02,6.942544e-06,4.000000e-01,100,2,1,1,1,2,3,4.087604e-01,1,1,Right,Vertical,Right,Vertical,Neither,Right,None,Final training,C
3,1,3,0,5.000000e-02,7.500000e-02,1.500000e+00,76,40,3.107712e-01,3.000156e-01,9.999795e-02,8.330959e-02,6.942311e-06,4.000000e-01,100,2,1,0,0,2,3,6.255035e-01,0,1,Left,Vertical,Left,Vertical,Neither,Left,None,Final training,C
3,1,3,0,5.000000e-02,7.500000e-02,1.500000e+00,76,45,3.188612e-01,3.000135e-01,1.000245e-01,8.334792e-02,6.942311e-06,4.000000e-01,100,2,1,0,0,2,3,3.921203e-01,0,1,Left,Vertical,Left,Vertical,Neither,Left,None,Final training,C
3,1,3,0,5.000000e-02,7.500000e-02,1.500000e+00,76,55,3.107621e-01,3.000642e-01,1.000124e-01,8.336875e-02,6.942311e-06,4.000000e-01,100,2,1,0,0,2,3,4.254366e-01,1,0,Right,Vertical,Left,Vertical,Neither,Left,None,Final training,C
3,1,3,0,5.000000e-02,7.500000e-02,1.500000e+00,76,45,3.189143e-01,3.000135e-01,1.000239e-01,8.335969e-02,7.546041e-06,4.000000e-01,100,2,1,0,0,2,3,4.004150e-01,0,1,Left,Vertical,Left,Vertical,Neither,Left,None,Final training,C
3,1,3,0,5.000000e-02,7.500000e-02,1.500000e+00,76,35,3.189116e-01,2.999929e-01,1.000444e-01,8.333404e-02,7.546274e-06,4.000000e-01,100,2,1,0,0,2,3,3.670666e-01,0,1,Left,Vertical,Left,Vertical,Neither,Left,None,Final training,C
3,1,3,0,5.000000e-02,7.500000e-02,1.500000e+00,76,45,3.106589e-01,3.000270e-01,9.996233e-02,8.336784e-02,7.244293e-06,4.000000e-01,100,2,1,1,1,2,3,4.170952e-01,1,1,Right,Vertical,Right,Vertical,Neither,Right,None,Final training,C
3,1,3,0,5.000000e-02,7.500000e-02,1.500000e+00,76,55,3.107606e-01,3.000252e-01,1.000112e-01,8.330929e-02,8.451520e-06,4.000000e-01,100,2,1,1,1,2,3,5.837916e-01,0,0,Left,Vertical,Right,Vertical,Neither,Right,None,Final training,C
3,1,3,0,5.000000e-02,7.500000e-02,1.500000e+00,76,50,3.187535e-01,3.000228e-01,1.000055e-01,8.331170e-02,8.451752e-06,4.000000e-01,100,2,1,0,0,2,3,4.170777e-01,0,1,Left,Vertical,Left,Vertical,Neither,Left,None,Final training,C
3,1,3,0,5.000000e-02,7.500000e-02,1.500000e+00,76,55,3.189487e-01,2.999851e-01,1.000091e-01,8.337026e-02,8.451752e-06,4.000000e-01,100,2,1,1,1,2,3,3.837142e-01,1,1,Right,Vertical,Right,Vertical,Neither,Right,None,Final training,C
3,1,3,0,5.000000e-02,7.500000e-02,1.500000e+00,76,50,3.189361e-01,2.999920e-01,1.000450e-01,8.334762e-02,7.244060e-06,4.000000e-01,100,2,1,1,1,2,3,3.420625e-01,0,0,Left,Vertical,Right,Vertical,Neither,Right,None,Final training,C
3,1,3,0,5.000000e-02,7.500000e-02,1.500000e+00,76,35,3.188941e-01,2.999763e-01,1.000290e-01,8.331080e-02,7.244293e-06,4.000000e-01,100,2,1,0,0,2,3,4.171332e-01,0,1,Left,Vertical,Left,Vertical,Neither,Left,None,Final training,C
3,1,3,0,5.000000e-02,7.500000e-02,1.500000e+00,76,45,3.106637e-01,2.999588e-01,1.000384e-01,8.333706e-02,7.244293e-06,4.000000e-01,100,2,1,1,1,2,3,4.421341e-01,1,1,Right,Vertical,Right,Vertical,Neither,Right,None,Final training,C
3,1,3,0,5.000000e-02,7.500000e-02,1.500000e+00,76,35,3.106797e-01,3.000443e-01,1.000142e-01,8.333585e-02,7.244293e-06,4.000000e-01,100,2,1,1,1,2,3,4.004080e-01,0,0,Left,Vertical,Right,Vertical,Neither,Right,None,Final training,C
3,1,3,0,5.000000e-02,7.500000e-02,1.500000e+00,76,55,3.106692e-01,3.000373e-01,1.000145e-01,8.333525e-02,6.942311e-06,4.000000e-01,100,2,1,0,0,2,3,3.920919e-01,0,1,Left,Vertical,Left,Vertical,Neither,Left,None,Final training,C
3,1,3,0,5.000000e-02,7.500000e-02,1.500000e+00,76,45,3.109623e-01,2.999833e-01,1.000188e-01,8.334098e-02,6.942544e-06,4.000000e-01,100,2,1,0,0,2,3,7.754766e-01,1,0,Right,Vertical,Left,Vertical,Neither,Left,None,Final training,C
3,1,3,0,5.000000e-02,7.500000e-02,1.500000e+00,76,40,3.185757e-01,3.000222e-01,1.000245e-01,8.333706e-02,7.244293e-06,4.000000e-01,100,2,1,1,1,2,3,3.754766e-01,0,0,Left,Vertical,Right,Vertical,Neither,Right,None,Final training,C
3,1,3,0,5.000000e-02,7.500000e-02,1.500000e+00,76,50,3.107652e-01,2.999941e-01,1.000136e-01,8.336362e-02,7.848023e-06,4.000000e-01,100,2,1,0,0,2,3,5.587452e-01,1,0,Right,Vertical,Left,Vertical,Neither,Left,None,Final training,C
3,1,3,0,5.000000e-02,7.500000e-02,1.500000e+00,76,45,3.189171e-01,3.000213e-01,1.000121e-01,8.334641e-02,7.244293e-06,4.000000e-01,100,2,1,1,1,2,3,4.421111e-01,1,1,Right,Vertical,Right,Vertical,Neither,Right,None,Final training,C
3,1,3,0,5.000000e-02,7.500000e-02,1.500000e+00,76,55,3.106698e-01,3.000669e-01,1.000224e-01,8.335577e-02,7.244293e-06,4.000000e-01,100,2,1,0,0,2,3,3.587777e-01,0,1,Left,Vertical,Left,Vertical,Neither,Left,None,Final training,C
3,1,3,0,5.000000e-02,7.500000e-02,1.500000e+00,76,55,3.106504e-01,3.001158e-01,9.995146e-02,8.333736e-02,6.942311e-06,4.000000e-01,100,2,1,0,0,2,3,6.920906e-01,1,0,Right,Vertical,Left,Vertical,Neither,Left,None,Final training,C
3,1,3,0,5.000000e-02,6.250000e-02,1.250000e+00,76,40,3.189705e-01,3.000095e-01,1.000097e-01,8.331019e-02,7.244293e-06,4.000000e-01,100,2,1,0,0,2,3,3.337427e-01,0,1,Left,Vertical,Left,Vertical,Neither,Left,None,Final training,C
3,1,3,0,5.000000e-02,6.250000e-02,1.250000e+00,76,45,3.189509e-01,3.000234e-01,1.000308e-01,8.332770e-02,6.942311e-06,4.000000e-01,100,2,1,1,1,2,3,3.837559e-01,1,1,Right,Vertical,Right,Vertical,Neither,Right,None,Final training,C
3,1,3,0,5.000000e-02,6.250000e-02,1.250000e+00,76,45,3.106526e-01,3.000304e-01,1.000529e-01,8.333585e-02,7.244293e-06,4.000000e-01,100,2,1,1,1,2,3,3.670968e-01,1,1,Right,Vertical,Right,Vertical,Neither,Right,None,Final training,C
3,1,3,0,5.000000e-02,6.250000e-02,1.250000e+00,76,45,3.108122e-01,3.000557e-01,1.000031e-01,8.330566e-02,7.244293e-06,4.000000e-01,100,2,1,0,0,2,3,3.754359e-01,0,1,Left,Vertical,Left,Vertical,Neither,Left,None,Final training,C
3,1,3,0,5.000000e-02,6.250000e-02,1.250000e+00,76,55,3.107102e-01,3.000246e-01,1.000124e-01,8.337026e-02,7.244293e-06,4.000000e-01,100,2,1,0,0,2,3,4.170496e-01,0,1,Left,Vertical,Left,Vertical,Neither,Left,None,Final training,C
3,1,3,0,5.000000e-02,6.250000e-02,1.250000e+00,76,35,3.106260e-01,3.000249e-01,1.000130e-01,8.337509e-02,6.942544e-06,4.000000e-01,100,2,1,0,0,2,3,3.503864e-01,0,1,Left,Vertical,Left,Vertical,Neither,Left,None,Final training,C
3,1,3,0,5.000000e-02,6.250000e-02,1.250000e+00,76,50,3.107938e-01,2.999950e-01,1.000432e-01,8.335275e-02,7.546041e-06,4.000000e-01,100,2,1,0,0,2,3,3.420821e-01,0,1,Left,Vertical,Left,Vertical,Neither,Left,None,Final training,C
3,1,3,0,5.000000e-02,6.250000e-02,1.250000e+00,76,50,3.188832e-01,3.000243e-01,9.997471e-02,8.338294e-02,6.942311e-06,4.000000e-01,100,2,1,0,0,2,3,3.921284e-01,0,1,Left,Vertical,Left,Vertical,Neither,Left,None,Final training,C
3,1,3,0,5.000000e-02,6.250000e-02,1.250000e+00,76,35,3.189732e-01,3.000458e-01,1.000203e-01,8.329782e-02,7.847790e-06,4.000000e-01,100,2,1,0,0,2,3,3.504513e-01,0,1,Left,Vertical,Left,Vertical,Neither,Left,None,Final training,C
3,1,3,0,5.000000e-02,6.250000e-02,1.250000e+00,76,45,3.107096e-01,3.000714e-01,9.999946e-02,8.336060e-02,7.244293e-06,4.000000e-01,100,2,1,1,1,2,3,7.088043e-01,1,1,Right,Vertical,Right,Vertical,Neither,Right,None,Final training,C
3,1,3,0,5.000000e-02,6.250000e-02,1.250000e+00,76,35,3.186454e-01,3.000723e-01,1.000251e-01,8.333675e-02,7.244293e-06,4.000000e-01,100,2,1,0,0,2,3,4.920923e-01,1,0,Right,Vertical,Left,Vertical,Neither,Left,None,Final training,C
3,1,3,0,5.000000e-02,6.250000e-02,1.250000e+00,76,55,3.188896e-01,3.000243e-01,1.000130e-01,8.334641e-02,7.244293e-06,4.000000e-01,100,2,1,1,1,2,3,4.920926e-01,0,0,Left,Vertical,Right,Vertical,Neither,Right,None,Final training,C
3,1,3,0,5.000000e-02,6.250000e-02,1.250000e+00,76,50,3.107636e-01,3.000153e-01,9.999010e-02,8.338475e-02,6.942544e-06,4.000000e-01,100,2,1,0,0,2,3,5.337447e-01,0,1,Left,Vertical,Left,Vertical,Neither,Left,None,Final training,C
3,1,3,0,5.000000e-02,6.250000e-02,1.250000e+00,76,55,3.187218e-01,3.000756e-01,9.999251e-02,8.333675e-02,7.244293e-06,4.000000e-01,100,2,1,1,1,2,3,4.421226e-01,0,0,Left,Vertical,Right,Vertical,Neither,Right,None,Final training,C
3,1,3,0,5.000000e-02,6.250000e-02,1.250000e+00,76,55,3.188558e-01,3.000524e-01,1.000173e-01,8.332619e-02,7.244293e-06,4.000000e-01,100,2,1,0,0,2,3,4.754178e-01,1,0,Right,Vertical,Left,Vertical,Neither,Left,None,Final training,C
3,1,3,0,5.000000e-02,6.250000e-02,1.250000e+00,76,35,3.186928e-01,3.000047e-01,1.000025e-01,8.333615e-02,7.244293e-06,4.000000e-01,100,2,1,1,1,2,3,5.255070e-01,0,0,Left,Vertical,Right,Vertical,Neither,Right,None,Final training,C
3,1,3,0,5.000000e-02,6.250000e-02,1.250000e+00,76,40,3.189626e-01,3.000168e-01,1.000058e-01,8.335154e-02,6.942311e-06,4.000000e-01,100,2,1,0,0,2,3,4.504191e-01,0,1,Left,Vertical,Left,Vertical,Neither,Left,None,Final training,C
3,1,3,0,5.000000e-02,6.250000e-02,1.250000e+00,76,40,3.189032e-01,3.000228e-01,1.001160e-01,8.322658e-02,6.942544e-06,4.000000e-01,100,2,1,1,1,2,3,5.088193e-01,0,0,Left,Vertical,Right,Vertical,Neither,Right,None,Final training,C
3,1,3,0,5.000000e-02,6.250000e-02,1.250000e+00,76,55,3.188425e-01,2.999621e-01,1.000130e-01,8.336935e-02,8.451752e-06,4.000000e-01,100,2,1,1,1,2,3,5.671190e-01,0,0,Left,Vertical,Right,Vertical,Neither,Right,None,Final training,C
3,1,3,0,5.000000e-02,6.250000e-02,1.250000e+00,76,45,3.187133e-01,3.000412e-01,9.996565e-02,8.334219e-02,7.546274e-06,4.000000e-01,100,2,1,1,1,2,3,6.254561e-01,0,0,Left,Vertical,Right,Vertical,Neither,Right,None,Final training,C
3,1,3,0,5.000000e-02,5.625000e-02,1.125000e+00,76,50,3.189382e-01,3.000077e-01,1.000203e-01,8.332740e-02,7.244060e-06,4.000000e-01,100,2,1,1,1,2,3,5.754523e-01,0,0,Left,Vertical,Right,Vertical,Neither,Right,None,Final training,C
3,1,3,0,5.000000e-02,5.625000e-02,1.125000e+00,76,35,3.188950e-01,3.000775e-01,1.000130e-01,8.333736e-02,7.244293e-06,4.000000e-01,100,2,1,1,1,2,3,7.837827e-01,1,1,Right,Vertical,Right,Vertical,Neither,Right,None,Final training,C
3,1,3,0,5.000000e-02,5.625000e-02,1.125000e+00,76,45,3.188033e-01,2.999501e-01,1.000254e-01,8.333706e-02,7.244293e-06,4.000000e-01,100,2,1,0,0,2,3,9.671186e-01,0,1,Left,Vertical,Left,Vertical,Neither,Left,None,Final training,C
3,1,3,0,5.000000e-02,5.625000e-02,1.125000e+00,76,50,3.183952e-01,3.000491e-01,1.000447e-01,8.332227e-02,7.546041e-06,4.000000e-01,100,2,1,0,0,2,3,6.171201e-01,0,1,Left,Vertical,Left,Vertical,Neither,Left,None,Final training,C
3,1,3,0,5.000000e-02,5.625000e-02,1.125000e+00,76,55,3.107184e-01,3.000168e-01,9.999010e-02,8.332076e-02,7.244293e-06,4.000000e-01,100,2,1,1,1,2,3,5.004727e-01,1,1,Right,Vertical,Right,Vertical,Neither,Right,None,Final training,C
3,1,3,0,5.000000e-02,5.625000e-02,1.125000e+00,76,45,3.189650e-01,3.000180e-01,9.999734e-02,8.331713e-02,7.244293e-06,4.000000e-01,100,2,1,1,1,2,3,4.504855e-01,0,0,Left,Vertical,Right,Vertical,Neither,Right,None,Final training,C
3,1,3,0,5.000000e-02,5.625000e-02,1.125000e+00,76,50,3.107661e-01,3.000162e-01,1.000230e-01,8.333645e-02,7.244293e-06,4.000000e-01,100,2,1,0,0,2,3,7.754310e-01,0,1,Left,Vertical,Left,Vertical,Neither,Left,None,Final training,C
3,1,3,0,5.000000e-02,5.625000e-02,1.125000e+00,76,50,3.189098e-01,3.000153e-01,1.000224e-01,8.333796e-02,7.244293e-06,4.000000e-01,100,2,1,0,0,2,3,8.254677e-01,0,1,Left,Vertical,Left,Vertical,Neither,Left,None,Final training,C
3,1,3,0,5.000000e-02,5.625000e-02,1.125000e+00,76,50,3.185745e-01,3.000910e-01,9.993939e-02,8.337931e-02,7.848023e-06,4.000000e-01,100,2,1,1,1,2,3,5.504448e-01,0,0,Left,Vertical,Right,Vertical,Neither,Right,None,Final training,C
3,1,3,0,5.000000e-02,5.625000e-02,1.125000e+00,76,55,3.188851e-01,2.999866e-01,9.999251e-02,8.334702e-02,6.942544e-06,4.000000e-01,100,2,1,0,0,2,3,8.922081e-01,1,0,Right,Vertical,Left,Vertical,Neither,Left,None,Final training,C
3,1,3,0,5.000000e-02,5.625000e-02,1.125000e+00,76,50,3.185032e-01,2.999778e-01,1.000493e-01,8.333826e-02,7.244293e-06,4.000000e-01,100,2,1,1,1,2,3,5.004156e-01,0,0,Left,Vertical,Right,Vertical,Neither,Right,None,Final training,C
3,1,3,0,5.000000e-02,5.625000e-02,1.125000e+00,76,40,3.107039e-01,3.000524e-01,9.993245e-02,8.335336e-02,6.942311e-06,4.000000e-01,100,2,1,0,0,2,3,7.588175e-01,1,0,Right,Vertical,Left,Vertical,Neither,Left,None,Final training,C
3,1,3,0,5.000000e-02,5.625000e-02,1.125000e+00,76,50,3.187737e-01,3.000672e-01,1.000139e-01,8.333615e-02,6.942311e-06,4.000000e-01,100,2,1,1,1,2,3,5.171164e-01,0,0,Left,Vertical,Right,Vertical,Neither,Right,None,Final training,C
3,1,3,0,5.000000e-02,5.625000e-02,1.125000e+00,76,40,3.107132e-01,3.000310e-01,1.000055e-01,8.333675e-02,6.942311e-06,4.000000e-01,100,2,1,1,1,2,3,9.338134e-01,1,1,Right,Vertical,Right,Vertical,Neither,Right,None,Final training,C
3,1,3,0,5.000000e-02,5.625000e-02,1.125000e+00,76,35,3.186928e-01,3.000340e-01,9.993335e-02,8.336724e-02,7.244293e-06,4.000000e-01,100,2,1,0,0,2,3,6.921525e-01,1,0,Right,Vertical,Left,Vertical,Neither,Left,None,Final training,C
3,1,3,0,5.000000e-02,5.625000e-02,1.125000e+00,76,40,3.186831e-01,3.000165e-01,1.000121e-01,8.332770e-02,6.942544e-06,4.000000e-01,100,2,1,0,0,2,3,6.921271e-01,1,0,Right,Vertical,Left,Vertical,Neither,Left,None,Final training,C
3,1,3,0,5.000000e-02,5.625000e-02,1.125000e+00,76,45,3.106474e-01,3.000159e-01,1.000188e-01,8.333766e-02,7.244293e-06,4.000000e-01,100,2,1,0,0,2,3,8.254674e-01,1,0,Right,Vertical,Left,Vertical,Neither,Left,None,Final training,C
3,1,3,0,5.000000e-02,5.625000e-02,1.125000e+00,76,35,3.188033e-01,3.000687e-01,9.996988e-02,8.332921e-02,6.942544e-06,4.000000e-01,100,2,1,0,0,2,3,4.587614e-01,0,1,Left,Vertical,Left,Vertical,Neither,Left,None,Final training,C
3,1,3,0,5.000000e-02,5.625000e-02,1.125000e+00,76,45,3.187559e-01,3.000693e-01,9.999795e-02,8.333826e-02,7.244293e-06,4.000000e-01,100,2,1,0,0,2,3,3.920943e-01,0,1,Left,Vertical,Left,Vertical,Neither,Left,None,Final training,C
3,1,3,0,5.000000e-02,5.625000e-02,1.125000e+00,76,45,3.107105e-01,3.000765e-01,1.000136e-01,8.329389e-02,7.546041e-06,4.000000e-01,100,2,1,1,1,2,3,4.088071e-01,0,0,Left,Vertical,Right,Vertical,Neither,Right,None,Final training,C
3,1,4,1,5.000000e-02,1.000000e-01,2.000000e+00,76,55,3.138714e-01,3.667150e-01,3.332691e-02,8.333555e-02,7.244293e-06,4.000000e-01,34,2,1,1,1,2,3,6.251343e-01,1,1,Right,Vertical,Right,Vertical,Neither,Right,None,Staircase calibration,C
3,1,4,1,5.000000e-02,1.000000e-01,2.000000e+00,76,50,3.147142e-01,3.667630e-01,3.331605e-02,8.333887e-02,6.942311e-06,4.000000e-01,34,2,1,0,0,2,3,4.087664e-01,0,1,Left,Vertical,Left,Vertical,Neither,Left,None,Staircase calibration,C
3,1,4,1,5.000000e-02,1.000000e-01,2.000000e+00,76,45,3.183188e-01,3.917336e-01,8.354744e-03,8.333464e-02,7.244060e-06,4.000000e-01,8,2,1,0,0,2,3,1.183802e+00,0,1,Left,Vertical,Left,Vertical,Neither,Left,None,Staircase calibration,C
3,1,4,1,5.000000e-02,1.000000e-01,2.000000e+00,76,35,3.185295e-01,3.666978e-01,3.334050e-02,8.335034e-02,6.942311e-06,4.000000e-01,34,2,1,1,1,2,3,4.420643e-01,1,1,Right,Vertical,Right,Vertical,Neither,Right,None,Staircase calibration,C
3,1,4,1,5.000000e-02,1.000000e-01,2.000000e+00,76,40,3.188682e-01,2.666476e-01,1.334142e-01,8.329812e-02,7.244060e-06,4.000000e-01,134,2,1,1,1,2,3,4.337600e-01,1,1,Right,Vertical,Right,Vertical,Neither,Right,None,Staircase calibration,C
3,1,4,1,5.000000e-02,1.000000e-01,2.000000e+00,76,40,3.189497e-01,2.666953e-01,1.333427e-01,8.333706e-02,6.942311e-06,4.000000e-01,134,2,1,0,0,2,3,6.338253e-01,0,1,Left,Vertical,Left,Vertical,Neither,Left,None,Staircase calibration,C
3,1,4,1,5.000000e-02,1.000000e-01,2.000000e+00,76,35,3.188814e-01,2.666959e-01,1.333104e-01,8.330295e-02,7.546274e-06,4.000000e-01,134,2,1,1,1,2,3,5.171405e-01,1,1,Right,Vertical,Right,Vertical,Neither,Right,None,Staircase calibration,C
3,1,4,1,5.000000e-02,1.000000e-01,2.000000e+00,76,35,3.188663e-01,2.667294e-01,1.333723e-01,8.331261e-02,7.244293e-06,4.000000e-01,134,2,1,0,0,2,3,6.171581e-01,0,1,Left,Vertical,Left,Vertical,Neither,Left,None,Staircase calibration,C
3,1,4,1,5.000000e-02,1.000000e-01,2.000000e+00,76,40,3.185228e-01,2.666823e-01,1.333200e-01,8.337177e-02,6.942311e-06,4.000000e-01,134,2,1,0,0,2,3,4.670380e-01,0,1,Left,Vertical,Left,Vertical,Neither,Left,None,Staircase calibration,C
3,1,4,1,5.000000e-02,1.000000e-01,2.000000e+00,76,45,3.188760e-01,3.917219e-01,8.319730e-03,8.333525e-02,7.546041e-06,4.000000e-01,8,2,1,0,0,2,3,4.254695e-01,0,1,Left,Vertical,Left,Vertical,Neither,Left,None,Staircase calibration,C
3,1,4,1,5.000000e-02,7.918896e-02,1.583779e+00,76,45,3.183254e-01,3.667563e-01,3.332239e-02,8.332528e-02,7.244293e-06,4.000000e-01,34,2,1,1,1,2,3,5.254370e-01,1,1,Right,Vertical,Right,Vertical,Neither,Right,None,Staircase calibration,C
3,1,4,1,5.000000e-02,7.918896e-02,1.583779e+00,76,35,3.106209e-01,2.666832e-01,1.334112e-01,8.330808e-02,6.942311e-06,4.000000e-01,134,2,1,1,1,2,3,4.587744e-01,1,1,Right,Vertical,Right,Vertical,Neither,Right,None,Staircase calibration,C
3,1,4,1,5.000000e-02,7.918896e-02,1.583779e+00,76,55,3.188621e-01,3.667177e-01,3.336766e-02,8.332076e-02,6.942544e-06,4.000000e-01,34,2,1,1,1,2,3,3.254408e-01,1,1,Right,Vertical,Right,Vertical,Neither,Right,None,Staircase calibration,C
3,1,4,1,5.000000e-02,7.918896e-02,1.583779e+00,76,50,3.106456e-01,2.667255e-01,1.333508e-01,8.333524e-02,7.546274e-06,4.000000e-01,134,2,1,0,0,2,3,4.004129e-01,1,0,Right,Vertical,Left,Vertical,Neither,Left,None,Staircase calibration,C
3,1,4,1,5.000000e-02,7.918896e-02,1.583779e+00,76,35,3.106821e-01,3.666839e-01,3.334261e-02,8.331532e-02,7.244293e-06,4.000000e-01,34,2,1,0,0,2,3,3.337473e-01,0,1,Left,Vertical,Left,Vertical,Neither,Left,None,Staircase calibration,C
3,1,4,1,5.000000e-02,7.918896e-02,1.583779e+00,76,35,3.106846e-01,3.916591e-01,8.335124e-03,8.333796e-02,6.942311e-06,4.000000e-01,8,2,1,0,0,2,3,3.754525e-01,0,1,Left,Vertical,Left,Vertical,Neither,Left,None,Staircase calibration,C
3,1,4,1,5.000000e-02,7.918896e-02,1.583779e+00,76,55,3.187689e-01,2.666826e-01,1.333602e-01,8.336181e-02,7.244293e-06,4.000000e-01,134,2,1,0,0,2,3,9.671089e-01,0,1,Left,Vertical,Left,Vertical,Neither,Left,None,Staircase calibration,C
3,1,4,1,5.000000e-02,7.918896e-02,1.583779e+00,76,50,3.186671e-01,2.666887e-01,1.333394e-01,8.328061e-02,7.244060e-06,4.000000e-01,134,2,1,0,0,2,3,4.921665e-01,0,1,Left,Vertical,Left,Vertical,Neither,Left,None,Staircase calibration,C
3,1,4,1,5.000000e-02,7.918896e-02,1.583779e+00,76,55,3.188718e-01,3.917004e-01,8.429602e-03,8.329178e-02,9.055482e-06,4.000000e-01,8,2,1,0,0,2,3,4.253926e-01,1,0,Right,Vertical,Left,Vertical,Neither,Left,None,Staircase calibration,C
3,1,4,1,5.000000e-02,7.918896e-02,1.583779e+00,76,55,3.189119e-01,2.666793e-01,1.333590e-01,8.333766e-02,7.244060e-06,4.000000e-01,134,2,1,1,1,2,3,6.170802e-01,0,0,Left,Vertical,Right,Vertical,Neither,Right,None,Staircase calibration,C
3,1,4,1,5.000000e-02,7.918896e-02,1.583779e+00,76,45,3.188947e-01,3.666806e-01,3.333748e-02,8.334853e-02,7.244293e-06,4.000000e-01,34,2,1,0,0,2,3,3.420920e-01,1,0,Right,Vertical,Left,Vertical,Neither,Left,None,Staircase calibration,C
3,1,4,1,5.000000e-02,7.918896e-02,1.583779e+00,76,35,3.106704e-01,3.666833e-01,3.333657e-02,8.334943e-02,7.546041e-06,4.000000e-01,34,2,1,1,1,2,3,7.838032e-01,1,1,Right,Vertical,Right,Vertical,Neither,Right,None,Staircase calibration,C
3,1,4,1,5.000000e-02,7.918896e-02,1.583779e+00,76,55,3.186623e-01,2.667104e-01,1.333240e-01,8.333434e-02,7.244293e-06,4.000000e-01,134,2,1,1,1,2,3,4.337832e-01,1,1,Right,Vertical,Right,Vertical,Neither,Right,None,Staircase calibration,C
3,1,4,1,5.000000e-02,7.918896e-02,1.583779e+00,76,45,3.189599e-01,2.666373e-01,1.333490e-01,8.333283e-02,7.244293e-06,4.000000e-01,134,2,1,1,1,2,3,3.837840e-01,1,1,Right,Vertical,Right,Vertical,Neither,Right,None,Staircase calibration,C
3,1,4,1,5.000000e-02,7.918896e-02,1.583779e+00,76,55,3.189430e-01,2.667207e-01,1.333487e-01,8.330566e-02,7.244293e-06,4.000000e-01,134,2,1,1,1,2,3,5.421296e-01,1,1,Right,Vertical,Right,Vertical,Neither,Right,None,Staircase calibration,C
3,1,4,1,5.000000e-02,7.918896e-02,1.583779e+00,76,35,3.188561e-01,2.666757e-01,1.333689e-01,8.332860e-02,7.244293e-06,4.000000e-01,134,2,1,0,0,2,3,4.587762e-01,1,0,Right,Vertical,Left,Vertical,Neither,Left,None,Staircase calibration,C
3,1,4,1,5.000000e-02,7.918896e-02,1.583779e+00,76,35,3.107187e-01,3.666736e-01,3.335982e-02,8.331744e-02,6.942311e-06,4.000000e-01,34,2,1,0,0,2,3,5.087646e-01,0,1,Left,Vertical,Left,Vertical,Neither,Left,None,Staircase calibration,C
3,1,4,1,5.000000e-02,7.918896e-02,1.583779e+00,76,50,3.187344e-01,3.666845e-01,3.338638e-02,8.332076e-02,7.244293e-06,4.000000e-01,34,2,1,1,1,2,3,3.754253e-01,1,1,Right,Vertical,Right,Vertical,Neither,Right,None,Staircase calibration,C
3,1,4,1,5.000000e-02,7.918896e-02,1.583779e+00,76,35,3.189364e-01,3.917013e-01,8.375571e-03,8.329812e-02,7.244293e-06,4.000000e-01,8,2,1,1,1,2,3,4.171021e-01,1,1,Right,Vertical,Right,Vertical,Neither,Right,None,Staircase calibration,C
3,1,4,1,5.000000e-02,7.918896e-02,1.583779e+00,76,40,3.105439e-01,3.917330e-01,8.370138e-03,8.330234e-02,6.942311e-06,4.000000e-01,8,2,1,1,1,2,3,4.504324e-01,1,1,Right,Vertical,Right,Vertical,Neither,Right,None,Staircase calibration,C
3,1,4,1,5.000000e-02,7.918896e-02,1.583779e+00,76,55,3.189273e-01,3.916687e-01,8.337237e-03,8.336392e-02,7.244293e-06,4.000000e-01,8,2,1,1,1,2,3,3.921294e-01,1,1,Right,Vertical,Right,Vertical,Neither,Right,None,Staircase calibration,C
3,1,4,1,5.000000e-02,7.918896e-02,1.583779e+00,76,35,3.188069e-01,3.666945e-01,3.334865e-02,8.337328e-02,7.244293e-06,4.000000e-01,34,2,1,1,1,2,3,8.754630e-01,0,0,Left,Vertical,Right,Vertical,Neither,Right,None,Staircase calibration,C
3,1,4,1,5.000000e-02,7.918896e-02,1.583779e+00,76,35,3.187800e-01,3.666492e-01,3.333899e-02,8.333857e-02,7.244293e-06,4.000000e-01,34,2,1,0,0,2,3,7.005727e-01,0,1,Left,Vertical,Left,Vertical,Neither,Left,None,Staircase calibration,C
3,1,4,1,5.000000e-02,7.918896e-02,1.583779e+00,76,55,3.187580e-01,3.917031e-01,8.333615e-03,8.334853e-02,7.244060e-06,4.000000e-01,8,2,1,1,1,2,3,1.217159e+00,0,0,Left,Vertical,Right,Vertical,Neither,Right,None,Staircase calibration,C
3,1,4,1,5.000000e-02,7.918896e-02,1.583779e+00,76,45,3.183583e-01,2.667466e-01,1.333608e-01,8.336332e-02,6.942311e-06,4.000000e-01,134,2,1,0,0,2,3,9.421108e-01,1,0,Right,Vertical,Left,Vertical,Neither,Left,None,Staircase calibration,C
3,1,4,1,5.000000e-02,7.918896e-02,1.583779e+00,76,55,3.186049e-01,3.917345e-01,8.335124e-03,8.331864e-02,7.244293e-06,4.000000e-01,8,2,1,1,1,2,3,4.671096e-01,1,1,Right,Vertical,Right,Vertical,Neither,Right,None,Staircase calibration,C
3,1,4,1,5.000000e-02,7.918896e-02,1.583779e+00,76,45,3.188374e-01,2.666742e-01,1.333611e-01,8.330597e-02,7.244293e-06,4.000000e-01,134,2,1,1,1,2,3,4.254511e-01,1,1,Right,Vertical,Right,Vertical,Neither,Right,None,Staircase calibration,C
3,1,4,1,5.000000e-02,7.918896e-02,1.583779e+00,76,50,3.187981e-01,3.917044e-01,8.336332e-03,8.333857e-02,6.942311e-06,4.000000e-01,8,2,1,1,1,2,3,5.171212e-01,1,1,Right,Vertical,Right,Vertical,Neither,Right,None,Staircase calibration,C
3,1,4,1,5.000000e-02,7.918896e-02,1.583779e+00,76,55,3.188570e-01,3.916739e-01,8.355046e-03,8.332891e-02,7.546041e-06,4.000000e-01,8,2,1,1,1,2,3,8.421524e-01,0,0,Left,Vertical,Right,Vertical,Neither,Right,None,Staircase calibration,C
3,1,4,1,5.000000e-02,7.918896e-02,1.583779e+00,76,40,3.185533e-01,3.666540e-01,3.333899e-02,8.334038e-02,7.546041e-06,4.000000e-01,34,2,1,1,1,2,3,4.088135e-01,1,1,Right,Vertical,Right,Vertical,Neither,Right,None,Staircase calibration,C
3,1,4,1,5.000000e-02,8.751733e-02,1.750347e+00,76,55,3.189119e-01,3.666881e-01,3.335016e-02,8.335879e-02,7.244060e-06,4.000000e-01,34,2,1,0,0,2,3,4.170716e-01,0,1,Left,Vertical,Left,Vertical,Neither,Left,None,Staircase calibration,C
3,1,4,1,5.000000e-02,8.751733e-02,1.750347e+00,76,55,3.106417e-01,3.916998e-01,8.339652e-03,8.332679e-02,7.244293e-06,4.000000e-01,8,2,1,1,1,2,3,3.837487e-01,1,1,Right,Vertical,Right,Vertical,Neither,Right,None,Staircase calibration,C
3,1,4,1,5.000000e-02,8.751733e-02,1.750347e+00,76,40,3.107395e-01,3.666332e-01,3.336223e-02,8.333857e-02,7.546274e-06,4.000000e-01,34,2,1,0,0,2,3,5.171260e-01,0,1,Left,Vertical,Left,Vertical,Neither,Left,None,Staircase calibration,C
3,1,4,1,5.000000e-02,8.751733e-02,1.750347e+00,76,45,3.189017e-01,3.666676e-01,3.336585e-02,8.331985e-02,7.244293e-06,4.000000e-01,34,2,1,0,0,2,3,6.421197e-01,0,1,Left,Vertical,Left,Vertical,Neither,Left,None,Staircase calibration,C
3,1,4,1,5.000000e-02,8.751733e-02,1.750347e+00,76,55,3.186578e-01,2.666666e-01,1.333710e-01,8.328936e-02,7.848023e-06,4.000000e-01,134,2,1,0,0,2,3,5.421652e-01,0,1,Left,Vertical,Left,Vertical,Neither,Left,None,Staircase calibration,C
3,1,4,1,5.000000e-02,8.751733e-02,1.750347e+00,76,50,3.106969e-01,3.917198e-01,8.348104e-03,8.332619e-02,7.244293e-06,4.000000e-01,8,2,1,0,0,2,3,7.087862e-01,0,1,Left,Vertical,Left,Vertical,Neither,Left,None,Staircase calibration,C
3,1,4,1,5.000000e-02,8.751733e-02,1.750347e+00,76,50,3.188111e-01,3.916702e-01,8.354744e-03,8.330989e-02,7.546041e-06,4.000000e-01,8,2,1,0,0,2,3,4.337793e-01,0,1,Left,Vertical,Left,Vertical,Neither,Left,None,Staircase calibration,C
3,1,4,1,5.000000e-02,8.751733e-02,1.750347e+00,76,40,3.188980e-01,2.667001e-01,1.333620e-01,8.325405e-02,7.244293e-06,4.000000e-01,134,2,1,1,1,2,3,3.755098e-01,1,1,Right,Vertical,Right,Vertical,Neither,Right,None,Staircase calibration,C
3,1,4,1,5.000000e-02,8.751733e-02,1.750347e+00,76,55,3.189394e-01,2.666588e-01,1.333991e-01,8.331653e-02,7.244293e-06,4.000000e-01,134,2,1,0,0,2,3,3.837628e-01,0,1,Left,Vertical,Left,Vertical,Neither,Left,None,Staircase calibration,C
3,1,4,1,5.000000e-02,8.751733e-02,1.750347e+00,76,40,3.189820e-01,3.916506e-01,8.355046e-03,8.331713e-02,6.942544e-06,4.000000e-01,8,2,1,1,1,2,3,5.421483e-01,1,1,Right,Vertical,Right,Vertical,Neither,Right,None,Staircase calibration,C
3,1,4,1,5.000000e-02,7.918896e-02,1.583779e+00,76,55,3.186907e-01,2.667077e-01,1.333306e-01,8.331200e-02,7.244293e-06,4.000000e-01,134,2,1,1,1,2,3,4.504897e-01,1,1,Right,Vertical,Right,Vertical,Neither,Right,None,Staircase calibration,C
3,1,4,1,5.000000e-02,7.918896e-02,1.583779e+00,76,50,3.189125e-01,3.667618e-01,3.330578e-02,8.334913e-02,7.244293e-06,4.000000e-01,34,2,1,1,1,2,3,3.421186e-01,1,1,Right,Vertical,Right,Vertical,Neither,Right,None,Staircase calibration,C
3,1,4,1,5.000000e-02,7.918896e-02,1.583779e+00,76,55,3.189862e-01,3.916995e-01,8.336935e-03,8.333706e-02,7.244293e-06,4.000000e-01,8,2,1,0,0,2,3,2.837504e-01,0,1,Left,Vertical,Left,Vertical,Neither,Left,None,Staircase calibration,C
3,1,4,1,5.000000e-02,7.918896e-02,1.583779e+00,76,35,3.108620e-01,3.666981e-01,3.334020e-02,8.334098e-02,7.244293e-06,4.000000e-01,34,2,1,0,0,2,3,3.920678e-01,0,1,Left,Vertical,Left,Vertical,Neither,Left,None,Staircase calibration,C
3,1,4,1,5.000000e-02,7.918896e-02,1.583779e+00,76,35,3.107193e-01,2.666802e-01,1.332886e-01,8.335879e-02,7.546041e-06,4.000000e-01,134,2,1,0,0,2,3,5.421516e-01,0,1,Left,Vertical,Left,Vertical,Neither,Left,None,Staircase calibration,C
3,1,4,1,5.000000e-02,7.918896e-02,1.583779e+00,76,40,3.188313e-01,3.917016e-01,8.317014e-03,8.329782e-02,6.942311e-06,4.000000e-01,8,2,1,1,1,2,3,3.254571e-01,1,1,Right,Vertical,Right,Vertical,Neither,Right,None,Staircase calibration,C
3,1,4,1,5.000000e-02,7.918896e-02,1.583779e+00,76,55,3.187344e-01,3.917246e-01,8.336030e-03,8.336664e-02,7.244293e-06,4.000000e-01,8,2,1,1,1,2,3,4.087628e-01,1,1,Right,Vertical,Right,Vertical,Neither,Right,None,Staircase calibration,C
3,1,4,1,5.000000e-02,7.918896e-02,1.583779e+00,76,40,3.105943e-01,3.666700e-01,3.332540e-02,8.335215e-02,7.244293e-06,4.000000e-01,34,2,1,1,1,2,3,7.337925e-01,1,1,Right,Vertical,Right,Vertical,Neither,Right,None,Staircase calibration,C
3,1,4,1,5.000000e-02,7.918896e-02,1.583779e+00,76,50,3.186472e-01,2.666380e-01,1.333783e-01,8.343666e-02,9.356998e-06,4.000000e-01,134,2,1,0,0,2,3,4.170164e-01,1,0,Right,Vertical,Left,Vertical,Neither,Left,None,Staircase calibration,C
3,1,4,1,5.000000e-02,7.918896e-02,1.583779e+00,76,40,3.189557e-01,2.666355e-01,1.333819e-01,8.335728e-02,6.942311e-06,4.000000e-01,134,2,1,1,1,2,3,4.337322e-01,0,0,Left,Vertical,Right,Vertical,Neither,Right,None,Staircase calibration,C
3,1,4,1,5.000000e-02,7.918896e-02,1.583779e+00,76,40,3.188893e-01,3.666773e-01,3.332842e-02,8.338867e-02,9.055249e-06,4.000000e-01,34,2,1,1,1,2,3,4.337401e-01,0,0,Left,Vertical,Right,Vertical,Neither,Right,None,Staircase calibration,C
3,1,4,1,5.000000e-02,7.918896e-02,1.583779e+00,76,35,3.186958e-01,3.667011e-01,3.336042e-02,8.328484e-02,7.546041e-06,4.000000e-01,34,2,1,0,0,2,3,6.254663e-01,1,0,Right,Vertical,Left,Vertical,Neither,Left,None,Staircase calibration,C
3,1,4,1,5.000000e-02,7.918896e-02,1.583779e+00,76,40,3.185334e-01,2.667406e-01,1.333475e-01,8.332951e-02,7.244060e-06,4.000000e-01,134,2,1,1,1,2,3,9.838305e-01,1,1,Right,Vertical,Right,Vertical,Neither,Right,None,Staircase calibration,C
3,1,4,1,5.000000e-02,7.918896e-02,1.583779e+00,76,50,3.185419e-01,3.667322e-01,3.335468e-02,8.330959e-02,7.244293e-06,4.000000e-01,34,2,1,1,1,2,3,3.837628e-01,1,1,Right,Vertical,Right,Vertical,Neither,Right,None,Staircase calibration,C
3,1,4,1,5.000000e-02,7.918896e-02,1.583779e+00,76,50,3.106577e-01,3.917367e-01,8.333012e-03,8.333736e-02,7.244293e-06,4.000000e-01,8,2,1,0,0,2,3,4.337437e-01,0,1,Left,Vertical,Left,Vertical,Neither,Left,None,Staircase calibration,C
3,1,4,1,5.000000e-02,7.918896e-02,1.583779e+00,76,50,3.106535e-01,3.666996e-01,3.330639e-02,8.336120e-02,8.149771e-06,4.000000e-01,34,2,1,0,0,2,3,5.671380e-01,1,0,Right,Vertical,Left,Vertical,Neither,Left,None,Staircase calibration,C
3,1,4,1,5.000000e-02,7.918896e-02,1.583779e+00,76,45,3.189303e-01,3.666453e-01,3.336887e-02,8.330536e-02,7.244293e-06,4.000000e-01,34,2,1,1,1,2,3,5.838055e-01,1,1,Right,Vertical,Right,Vertical,Neither,Right,None,Staircase calibration,C
3,1,4,1,5.000000e-02,7.918896e-02,1.583779e+00,76,40,3.186810e-01,3.666993e-01,3.333718e-02,8.333766e-02,7.244060e-06,4.000000e-01,34,2,1,0,0,2,3,3.837740e-01,0,1,Left,Vertical,Left,Vertical,Neither,Left,None,Staircase calibration,C
3,1,4,1,5.000000e-02,7.918896e-02,1.583779e+00,76,40,3.188322e-01,3.667198e-01,3.331907e-02,8.333615e-02,7.244293e-06,4.000000e-01,34,2,1,1,1,2,3,5.587470e-01,1,1,Right,Vertical,Right,Vertical,Neither,Right,None,Staircase calibration,C
3,1,4,1,5.000000e-02,7.918896e-02,1.583779e+00,76,50,3.171419e-01,2.666494e-01,1.333469e-01,8.333645e-02,8.150004e-06,4.000000e-01,134,2,1,1,1,2,3,5.504964e-01,1,1,Right,Vertical,Right,Vertical,Neither,Right,None,Staircase calibration,C
3,1,4,1,5.000000e-02,7.918896e-02,1.583779e+00,76,45,3.188307e-01,3.916823e-01,8.328786e-03,8.333555e-02,7.244293e-06,4.000000e-01,8,2,1,0,0,2,3,2.754433e-01,0,1,Left,Vertical,Left,Vertical,Neither,Left,None,Staircase calibration,C
3,1,4,1,5.000000e-02,7.918896e-02,1.583779e+00,76,50,3.106550e-01,2.667010e-01,1.333976e-01,8.333706e-02,7.244293e-06,4.000000e-01,134,2,1,1,1,2,3,5.754360e-01,0,0,Left,Vertical,Right,Vertical,Neither,Right,None,Staircase calibration,C
3,1,4,1,5.000000e-02,7.918896e-02,1.583779e+00,76,50,3.104733e-01,2.666627e-01,1.333412e-01,8.333645e-02,7.244293e-06,4.000000e-01,134,2,1,1,1,2,3,4.671738e-01,1,1,Right,Vertical,Right,Vertical,Neither,Right,None,Staircase calibration,C
3,1,4,1,5.000000e-02,7.918896e-02,1.583779e+00,76,50,3.188365e-01,3.917481e-01,8.341463e-03,8.332166e-02,7.244293e-06,4.000000e-01,8,2,1,0,0,2,3,7.588027e-01,0,1,Left,Vertical,Left,Vertical,Neither,Left,None,Staircase calibration,C
3,1,4,1,5.000000e-02,7.918896e-02,1.583779e+00,76,45,3.188011e-01,3.666570e-01,3.336978e-02,8.331834e-02,7.244293e-06,4.000000e-01,34,2,1,0,0,2,3,4.921309e-01,0,1,Left,Vertical,Left,Vertical,Neither,Left,None,Staircase calibration,C
3,1,4,1,5.000000e-02,7.918896e-02,1.583779e+00,76,50,3.188974e-01,3.667002e-01,3.333838e-02,8.332619e-02,7.244293e-06,4.000000e-01,34,2,1,1,1,2,3,4.671062e-01,0,0,Left,Vertical,Right,Vertical,Neither,Right,None,Staircase calibration,C
3,1,4,1,5.000000e-02,7.918896e-02,1.583779e+00,76,40,3.189572e-01,3.916660e-01,8.304336e-03,8.336815e-02,6.942311e-06,4.000000e-01,8,2,1,1,1,2,3,5.587615e-01,0,0,Left,Vertical,Right,Vertical,Neither,Right,None,Staircase calibration,C
3,1,4,1,5.000000e-02,7.918896e-02,1.583779e+00,76,45,3.188663e-01,3.667059e-01,3.334080e-02,8.330385e-02,7.244293e-06,4.000000e-01,34,2,1,0,0,2,3,8.505769e-01,1,0,Right,Vertical,Left,Vertical,Neither,Left,None,Staircase calibration,C
3,1,4,1,5.000000e-02,7.918896e-02,1.583779e+00,76,45,3.187160e-01,2.666594e-01,1.333375e-01,8.330808e-02,7.546041e-06,4.000000e-01,134,2,1,1,1,2,3,4.754706e-01,0,0,Left,Vertical,Right,Vertical,Neither,Right,None,Staircase calibration,C
3,1,4,1,5.000000e-02,7.918896e-02,1.583779e+00,76,50,3.189361e-01,3.916992e-01,8.336332e-03,8.333706e-02,7.244293e-06,4.000000e-01,8,2,1,1,1,2,3,1.558868e+00,0,0,Left,Vertical,Right,Vertical,Neither,Right,None,Staircase calibration,C
3,1,5,2,5.000000e-02,8.751733e-02,1.750347e+00,76,35,3.158120e-01,3.666908e-01,3.333929e-02,8.333555e-02,6.942311e-06,4.000000e-01,34,1,2,0,0,2,3,1.642213e+00,0,1,Left,Right,Left,Vertical,Foil primed,Left,None,Main study,C
3,1,5,2,5.000000e-02,8.751733e-02,1.750347e+00,76,45,3.180861e-01,3.666582e-01,3.333989e-02,8.336815e-02,7.244293e-06,4.000000e-01,34,1,2,0,0,2,3,4.004074e-01,0,1,Left,Right,Left,Vertical,Foil primed,Left,None,Main study,C
3,1,5,2,5.000000e-02,8.751733e-02,1.750347e+00,76,40,3.189149e-01,2.666479e-01,1.333490e-01,8.333766e-02,7.546041e-06,4.000000e-01,134,1,2,0,0,2,3,8.088116e-01,0,1,Left,Right,Left,Vertical,Foil primed,Left,None,Main study,C
3,1,5,2,5.000000e-02,8.751733e-02,1.750347e+00,76,45,3.185844e-01,2.667007e-01,1.333475e-01,8.332770e-02,7.546274e-06,4.000000e-01,134,1,2,0,0,2,3,6.087864e-01,0,1,Left,Right,Left,Vertical,Foil primed,Left,None,Main study,C
3,1,5,2,5.000000e-02,8.751733e-02,1.750347e+00,76,55,3.186572e-01,3.667038e-01,3.334140e-02,8.333253e-02,7.244293e-06,4.000000e-01,34,0,2,1,1,2,3,5.421685e-01,1,1,Right,Left,Right,Vertical,Foil primed,Right,None,Main study,C
3,1,5,2,5.000000e-02,8.751733e-02,1.750347e+00,76,35,3.188196e-01,3.917010e-01,8.337237e-03,8.332378e-02,7.244060e-06,4.000000e-01,8,1,2,0,0,2,3,6.504539e-01,0,1,Left,Right,Left,Vertical,Foil primed,Left,None,Main study,C
3,1,5,2,5.000000e-02,8.751733e-02,1.750347e+00,76,35,3.188328e-01,3.917228e-01,8.313391e-03,8.333887e-02,7.244293e-06,4.000000e-01,8,0,2,1,1,2,3,5.421103e-01,1,1,Right,Left,Right,Vertical,Foil primed,Right,None,Main study,C
3,1,5,2,5.000000e-02,8.751733e-02,1.750347e+00,76,50,3.188510e-01,2.667213e-01,1.333484e-01,8.335879e-02,6.942311e-06,4.000000e-01,134,0,3,0,0,2,3,5.920966e-01,1,0,Right,Left,Left,Vertical,Target primed,Left,None,Main study,C
3,1,5,2,5.000000e-02,8.751733e-02,1.750347e+00,76,50,3.107012e-01,3.916500e-01,8.346293e-03,8.339531e-02,9.055482e-06,4.000000e-01,8,1,3,1,1,2,3,4.670428e-01,1,1,Right,Right,Right,Vertical,Target primed,Right,None,Main study,C
3,1,5,2,5.000000e-02,8.751733e-02,1.750347e+00,76,45,3.106695e-01,3.916503e-01,8.361385e-03,8.331291e-02,6.942544e-06,4.000000e-01,8,0,3,0,0,2,3,6.671592e-01,1,0,Right,Left,Left,Vertical,Target primed,Left,None,Main study,C
3,1,5,2,5.000000e-02,8.751733e-02,1.750347e+00,76,40,3.187885e-01,3.917010e-01,8.326974e-03,8.335698e-02,7.546041e-06,4.000000e-01,8,1,3,1,1,2,3,5.504741e-01,0,0,Left,Right,Right,Vertical,Target primed,Right,None,Main study,C
3,1,5,2,5.000000e-02,8.751733e-02,1.750347e+00,76,45,3.187830e-01,3.667258e-01,3.334291e-02,8.334702e-02,6.942311e-06,4.000000e-01,34,0,2,1,1,2,3,9.254490e-01,0,0,Left,Left,Right,Vertical,Foil primed,Right,None,Main study,C
3,1,5,2,5.000000e-02,8.751733e-02,1.750347e+00,76,35,3.186490e-01,2.666938e-01,1.333427e-01,8.332378e-02,7.244293e-06,4.000000e-01,134,0,3,0,0,2,3,1.000478e+00,1,0,Right,Left,Left,Vertical,Target primed,Left,None,Main study,C
3,1,5,2,5.000000e-02,8.751733e-02,1.750347e+00,76,55,3.185606e-01,3.667310e-01,3.334835e-02,8.333796e-02,6.942544e-06,4.000000e-01,34,1,3,1,1,2,3,6.087901e-01,0,0,Left,Right,Right,Vertical,Target primed,Right,None,Main study,C
3,1,5,2,5.000000e-02,8.751733e-02,1.750347e+00,76,35,3.188241e-01,3.667002e-01,3.333688e-02,8.333525e-02,7.244293e-06,4.000000e-01,34,1,3,1,1,2,3,4.504203e-01,0,0,Left,Right,Right,Vertical,Target primed,Right,None,Main study,C
3,1,5,2,5.000000e-02,8.751733e-02,1.750347e+00,76,55,3.189563e-01,2.666663e-01,1.333638e-01,8.333585e-02,7.244293e-06,4.000000e-01,134,0,2,1,1,2,3,7.171373e-01,1,1,Right,Left,Right,Vertical,Foil primed,Right,None,Main study,C
3,1,5,2,5.000000e-02,8.751733e-02,1.750347e+00,76,50,3.188666e-01,3.666869e-01,3.335076e-02,8.336000e-02,7.244293e-06,4.000000e-01,34,0,2,1,1,2,3,5.670876e-01,1,1,Right,Left,Right,Vertical,Foil primed,Right,None,Main study,C
3,1,5,2,5.000000e-02,8.751733e-02,1.750347e+00,76,40,3.188615e-01,2.666881e-01,1.333378e-01,8.334762e-02,7.244293e-06,4.000000e-01,134,1,2,0,0,2,3,5.587712e-01,0,1,Left,Right,Left,Vertical,Foil primed,Left,None,Main study,C
3,1,5,2,5.000000e-02,8.751733e-02,1.750347e+00,76,40,3.188292e-01,3.916917e-01,8.335426e-03,8.333736e-02,7.244293e-06,4.000000e-01,8,0,3,0,0,2,3,5.088160e-01,0,1,Left,Left,Left,Vertical,Target primed,Left,None,Main study,C
3,1,5,2,5.000000e-02,8.751733e-02,1.750347e+00,76,55,3.189807e-01,3.666990e-01,3.333718e-02,8.332921e-02,7.546041e-06,4.000000e-01,34,0,3,0,0,2,3,5.254352e-01,1,0,Right,Left,Left,Vertical,Target primed,Left,None,Main study,C
3,1,5,2,5.000000e-02,8.751733e-02,1.750347e+00,76,50,3.189403e-01,2.666896e-01,1.333390e-01,8.334521e-02,7.244293e-06,4.000000e-01,134,1,3,1,1,2,3,8.421548e-01,1,1,Right,Right,Right,Vertical,Target primed,Right,None,Main study,C
3,1,5,2,5.000000e-02,8.751733e-02,1.750347e+00,76,45,3.186955e-01,3.666972e-01,3.333899e-02,8.332649e-02,7.546041e-06,4.000000e-01,34,0,2,1,1,2,3,5.421272e-01,1,1,Right,Left,Right,Vertical,Foil primed,Right,None,Main study,C
3,1,5,2,5.000000e-02,8.751733e-02,1.750347e+00,76,40,3.189321e-01,3.667168e-01,3.332873e-02,8.333374e-02,7.244060e-06,4.000000e-01,34,1,2,0,0,2,3,4.254116e-01,0,1,Left,Right,Left,Vertical,Foil primed,Left,None,Main study,C
3,1,5,2,5.000000e-02,8.751733e-02,1.750347e+00,76,40,3.106520e-01,3.917315e-01,8.336332e-03,8.333706e-02,7.244060e-06,4.000000e-01,8,1,2,0,0,2,3,4.170713e-01,0,1,Left,Right,Left,Vertical,Foil primed,Left,None,Main study,C
3,1,5,2,5.000000e-02,8.751733e-02,1.750347e+00,76,55,3.108666e-01,3.916687e-01,8.361385e-03,8.330415e-02,7.244293e-06,4.000000e-01,8,0,2,1,1,2,3,3.671089e-01,1,1,Right,Left,Right,Vertical,Foil primed,Right,None,Main study,C
3,1,5,2,5.000000e-02,8.751733e-02,1.750347e+00,76,50,3.188030e-01,2.667216e-01,1.333061e-01,8.337811e-02,9.055249e-06,4.000000e-01,134,0,2,1,1,2,3,6.004054e-01,1,1,Right,Left,Right,Vertical,Foil primed,Right,None,Main study,C
3,1,5,2,5.000000e-02,8.751733e-02,1.750347e+00,76,40,3.187930e-01,2.667306e-01,1.333430e-01,8.333555e-02,7.244293e-06,4.000000e-01,134,1,3,1,1,2,3,3.838178e-01,0,0,Left,Right,Right,Vertical,Target primed,Right,None,Main study,C
3,1,5,2,5.000000e-02,8.751733e-02,1.750347e+00,76,50,3.189563e-01,3.916817e-01,8.356857e-03,8.334521e-02,7.244293e-06,4.000000e-01,8,0,3,0,0,2,3,9.004672e-01,1,0,Right,Left,Left,Vertical,Target primed,Left,None,Main study,C
3,1,5,2,5.000000e-02,8.751733e-02,1.750347e+00,76,35,3.187043e-01,3.917025e-01,8.393078e-03,8.328333e-02,9.357231e-06,4.000000e-01,8,0,3,0,0,2,3,5.754164e-01,0,1,Left,Left,Left,Vertical,Target primed,Left,None,Main study,C
3,1,5,2,5.000000e-02,8.751733e-02,1.750347e+00,76,40,3.188923e-01,3.666459e-01,3.336615e-02,8.334219e-02,7.244293e-06,4.000000e-01,34,1,2,0,0,2,3,5.921274e-01,0,1,Left,Right,Left,Vertical,Foil primed,Left,None,Main study,C
3,1,5,2,5.000000e-02,8.751733e-02,1.750347e+00,76,50,3.107280e-01,3.916865e-01,8.349613e-03,8.333917e-02,7.244060e-06,4.000000e-01,8,0,3,0,0,2,3,4.171332e-01,0,1,Left,Left,Left,Vertical,Target primed,Left,None,Main study,C
3,1,5,2,5.000000e-02,8.751733e-02,1.750347e+00,76,45,3.188757e-01,2.666881e-01,1.333478e-01,8.333706e-02,7.244060e-06,4.000000e-01,134,0,3,0,0,2,3,5.004271e-01,1,0,Right,Left,Left,Vertical,Target primed,Left,None,Main study,C
3,1,5,2,5.000000e-02,8.751733e-02,1.750347e+00,76,35,3.188748e-01,3.917004e-01,8.336030e-03,8.336784e-02,7.244060e-06,4.000000e-01,8,0,3,0,0,2,3,4.670739e-01,0,1,Left,Left,Left,Vertical,Target primed,Left,None,Main study,C
3,1,5,2,5.000000e-02,8.751733e-02,1.750347e+00,76,35,3.106504e-01,3.916736e-01,8.336633e-03,8.338173e-02,7.244060e-06,4.000000e-01,8,1,3,1,1,2,3,5.921120e-01,1,1,Right,Right,Right,Vertical,Target primed,Right,None,Main study,C
3,1,5,2,5.000000e-02,8.751733e-02,1.750347e+00,76,55,3.188313e-01,3.666842e-01,3.334231e-02,8.333857e-02,7.244293e-06,4.000000e-01,34,1,3,1,1,2,3,5.338147e-01,0,0,Left,Right,Right,Vertical,Target primed,Right,None,Main study,C
3,1,5,2,5.000000e-02,8.751733e-02,1.750347e+00,76,55,3.189608e-01,2.666772e-01,1.333089e-01,8.337147e-02,7.244293e-06,4.000000e-01,134,1,3,1,1,2,3,6.170826e-01,1,1,Right,Right,Right,Vertical,Target primed,Right,None,Main study,C
3,1,5,2,5.000000e-02,8.751733e-02,1.750347e+00,76,45,3.187776e-01,2.667016e-01,1.333526e-01,8.333736e-02,7.848023e-06,4.000000e-01,134,1,2,0,0,2,3,8.754688e-01,1,0,Right,Right,Left,Vertical,Foil primed,Left,None,Main study,C
3,1,5,2,5.000000e-02,8.751733e-02,1.750347e+00,76,35,3.186614e-01,3.916814e-01,8.338445e-03,8.335426e-02,7.244060e-06,4.000000e-01,8,0,3,0,0,2,3,4.921038e-01,0,1,Left,Left,Left,Vertical,Target primed,Left,None,Main study,C
3,1,5,2,5.000000e-02,8.751733e-02,1.750347e+00,76,35,3.106797e-01,3.916289e-01,8.356857e-03,8.331532e-02,7.244060e-06,4.000000e-01,8,1,3,1,1,2,3,5.755102e-01,1,1,Right,Right,Right,Vertical,Target primed,Right,None,Main study,C
3,1,5,2,5.000000e-02,8.751733e-02,1.750347e+00,76,45,3.189385e-01,3.666978e-01,3.334170e-02,8.333585e-02,6.942311e-06,4.000000e-01,34,1,3,1,1,2,3,5.421085e-01,1,1,Right,Right,Right,Vertical,Target primed,Right,None,Main study,C
3,1,5,2,5.000000e-02,8.751733e-02,1.750347e+00,76,35,3.189566e-01,3.666422e-01,3.334502e-02,8.335788e-02,7.244293e-06,4.000000e-01,34,0,2,1,1,2,3,5.588397e-01,1,1,Right,Left,Right,Vertical,Foil primed,Right,None,Main study,C
3,1,5,2,5.000000e-02,8.751733e-02,1.750347e+00,76,35,3.188911e-01,2.667216e-01,1.333049e-01,8.334702e-02,7.546041e-06,4.000000e-01,134,0,3,0,0,2,3,5.253984e-01,1,0,Right,Left,Left,Vertical,Target primed,Left,None,Main study,C
3,1,5,2,5.000000e-02,8.751733e-02,1.750347e+00,76,55,3.187435e-01,2.667430e-01,1.333291e-01,8.333645e-02,6.942544e-06,4.000000e-01,134,0,3,0,0,2,3,6.170986e-01,0,1,Left,Left,Left,Vertical,Target primed,Left,None,Main study,C
3,1,5,2,5.000000e-02,8.751733e-02,1.750347e+00,76,40,3.188437e-01,3.666830e-01,3.332058e-02,8.335336e-02,7.244060e-06,4.000000e-01,34,1,3,1,1,2,3,3.754588e-01,0,0,Left,Right,Right,Vertical,Target primed,Right,None,Main study,C
3,1,5,2,5.000000e-02,8.751733e-02,1.750347e+00,76,55,3.189503e-01,3.916552e-01,8.336030e-03,8.333042e-02,7.244293e-06,4.000000e-01,8,0,3,0,0,2,3,4.839223e-01,0,1,Left,Left,Left,Vertical,Target primed,Left,None,Main study,C
3,1,5,2,5.000000e-02,8.751733e-02,1.750347e+00,76,55,3.189774e-01,3.917016e-01,8.339048e-03,8.333615e-02,6.942311e-06,4.000000e-01,8,0,2,1,1,2,3,4.754305e-01,1,1,Right,Left,Right,Vertical,Foil primed,Right,None,Main study,C
3,1,5,2,5.000000e-02,8.751733e-02,1.750347e+00,76,40,3.107365e-01,3.917161e-01,8.318221e-03,8.333796e-02,7.244293e-06,4.000000e-01,8,1,2,0,0,2,3,5.421006e-01,1,0,Right,Right,Left,Vertical,Foil primed,Left,None,Main study,C
3,1,5,2,5.000000e-02,8.751733e-02,1.750347e+00,76,50,3.188636e-01,3.667210e-01,3.333869e-02,8.336211e-02,7.244293e-06,4.000000e-01,34,1,2,0,0,2,3,5.254467e-01,0,1,Left,Right,Left,Vertical,Foil primed,Left,None,Main study,C
3,1,5,2,5.000000e-02,8.751733e-02,1.750347e+00,76,50,3.186548e-01,2.667201e-01,1.333584e-01,8.335426e-02,7.546041e-06,4.000000e-01,134,1,3,1,1,2,3,5.420925e-01,0,0,Left,Right,Right,Vertical,Target primed,Right,None,Main study,C
3,1,5,2,5.000000e-02,8.751733e-02,1.750347e+00,76,35,3.188274e-01,3.666667e-01,3.335680e-02,8.331351e-02,7.546041e-06,4.000000e-01,34,0,2,1,1,2,3,5.171363e-01,1,1,Right,Left,Right,Vertical,Foil primed,Right,None,Main study,C
3,1,5,2,5.000000e-02,8.751733e-02,1.750347e+00,76,45,3.107615e-01,3.666712e-01,3.331152e-02,8.335426e-02,7.244293e-06,4.000000e-01,34,1,3,1,1,2,3,5.588448e-01,1,1,Right,Right,Right,Vertical,Target primed,Right,None,Main study,C
3,1,5,2,5.000000e-02,8.751733e-02,1.750347e+00,76,40,3.189270e-01,2.667258e-01,1.332651e-01,8.334521e-02,7.546041e-06,4.000000e-01,134,1,3,1,1,2,3,5.088178e-01,1,1,Right,Right,Right,Vertical,Target primed,Right,None,Main study,C
3,1,5,2,5.000000e-02,8.751733e-02,1.750347e+00,76,45,3.107051e-01,2.665891e-01,1.333982e-01,8.333555e-02,6.942311e-06,4.000000e-01,134,1,2,0,0,2,3,5.087891e-01,0,1,Left,Right,Left,Vertical,Foil primed,Left,None,Main study,C
3,1,5,2,5.000000e-02,8.751733e-02,1.750347e+00,76,50,3.189152e-01,3.917596e-01,8.320636e-03,8.333706e-02,7.244293e-06,4.000000e-01,8,1,3,1,1,2,3,5.171351e-01,1,1,Right,Right,Right,Vertical,Target primed,Right,None,Main study,C
3,1,5,2,5.000000e-02,8.751733e-02,1.750347e+00,76,35,3.188428e-01,2.666470e-01,1.333493e-01,8.333736e-02,7.546274e-06,4.000000e-01,134,1,2,0,0,2,3,5.754888e-01,0,1,Left,Right,Left,Vertical,Foil primed,Left,None,Main study,C
3,1,5,2,5.000000e-02,8.751733e-02,1.750347e+00,76,55,3.189783e-01,2.666856e-01,1.333511e-01,8.336694e-02,6.942544e-06,4.000000e-01,134,0,2,1,1,2,3,4.254122e-01,1,1,Right,Left,Right,Vertical,Foil primed,Right,None,Main study,C
3,1,5,2,5.000000e-02,8.751733e-02,1.750347e+00,76,50,3.187773e-01,3.916675e-01,8.370138e-03,8.333796e-02,6.942311e-06,4.000000e-01,8,0,2,1,1,2,3,5.254129e-01,1,1,Right,Left,Right,Vertical,Foil primed,Right,None,Main study,C
3,1,5,2,5.000000e-02,8.751733e-02,1.750347e+00,76,40,3.188911e-01,3.917545e-01,8.314599e-03,8.334641e-02,6.942544e-06,4.000000e-01,8,1,3,1,1,2,3,3.921137e-01,1,1,Right,Right,Right,Vertical,Target primed,Right,None,Main study,C
3,1,5,2,5.000000e-02,8.751733e-02,1.750347e+00,76,45,3.108186e-01,3.667008e-01,3.333627e-02,8.333947e-02,7.244293e-06,4.000000e-01,34,1,3,1,1,2,3,3.587330e-01,1,1,Right,Right,Right,Vertical,Target primed,Right,None,Main study,C
3,1,5,2,5.000000e-02,8.751733e-02,1.750347e+00,76,40,3.188516e-01,3.917134e-01,8.338444e-03,8.335879e-02,7.244293e-06,4.000000e-01,8,1,3,1,1,2,3,4.087824e-01,1,1,Right,Right,Right,Vertical,Target primed,Right,None,Main study,C
3,1,6,2,5.000000e-02,8.751733e-02,1.750347e+00,76,45,3.109767e-01,3.666809e-01,3.334985e-02,8.333555e-02,7.244293e-06,4.000000e-01,34,0,3,0,0,2,3,4.337612e-01,0,1,Left,Left,Left,Vertical,Target primed,Left,None,Main study,C
3,1,6,2,5.000000e-02,8.751733e-02,1.750347e+00,76,50,3.187562e-01,2.667825e-01,1.333040e-01,8.333525e-02,6.942544e-06,4.000000e-01,134,1,3,1,1,2,3,6.504494e-01,0,0,Left,Right,Right,Vertical,Target primed,Right,None,Main study,C
3,1,6,2,5.000000e-02,8.751733e-02,1.750347e+00,76,45,3.186704e-01,2.666718e-01,1.333460e-01,8.333977e-02,7.244293e-06,4.000000e-01,134,1,3,1,1,2,3,4.838012e-01,1,1,Right,Right,Right,Vertical,Target primed,Right,None,Main study,C
3,1,6,2,5.000000e-02,8.751733e-02,1.750347e+00,76,45,3.188129e-01,3.666721e-01,3.333869e-02,8.333615e-02,7.244293e-06,4.000000e-01,34,0,3,0,0,2,3,4.338104e-01,1,0,Right,Left,Left,Vertical,Target primed,Left,None,Main study,C
3,1,6,2,5.000000e-02,8.751733e-02,1.750347e+00,76,55,3.106634e-01,3.666386e-01,3.335740e-02,8.331804e-02,7.546041e-06,4.000000e-01,34,0,3,0,0,2,3,3.921242e-01,1,0,Right,Left,Left,Vertical,Target primed,Left,None,Main study,C
3,1,6,2,5.000000e-02,8.751733e-02,1.750347e+00,76,40,3.106984e-01,2.666914e-01,1.333707e-01,8.334671e-02,6.942544e-06,4.000000e-01,134,1,2,0,0,2,3,4.587823e-01,0,1,Left,Right,Left,Vertical,Foil primed,Left,None,Main study,C
3,1,6,2,5.000000e-02,8.751733e-02,1.750347e+00,76,45,3.107021e-01,3.666794e-01,3.336827e-02,8.331985e-02,6.942311e-06,4.000000e-01,34,1,3,1,1,2,3,7.671309e-01,1,1,Right,Right,Right,Vertical,Target primed,Right,None,Main study,C
3,1,6,2,5.000000e-02,8.751733e-02,1.750347e+00,76,40,3.187571e-01,3.666691e-01,3.343045e-02,8.332921e-02,9.055249e-06,4.000000e-01,34,1,3,1,1,2,3,5.503893e-01,1,1,Right,Right,Right,Vertical,Target primed,Right,None,Main study,C
3,1,6,2,5.000000e-02,8.751733e-02,1.750347e+00,76,50,3.188147e-01,2.666706e-01,1.333261e-01,8.333645e-02,7.244060e-06,4.000000e-01,134,0,3,0,0,2,3,4.754613e-01,0,1,Left,Left,Left,Vertical,Target primed,Left,None,Main study,C
3,1,6,2,5.000000e-02,8.751733e-02,1.750347e+00,76,50,3.187930e-01,3.917273e-01,8.310675e-03,8.333615e-02,7.244293e-06,4.000000e-01,8,0,2,1,1,2,3,4.504224e-01,0,0,Left,Left,Right,Vertical,Foil primed,Right,None,Main study,C
3,1,6,2,5.000000e-02,8.751733e-02,1.750347e+00,76,45,3.106948e-01,3.916847e-01,8.342972e-03,8.335909e-02,7.244293e-06,4.000000e-01,8,0,2,1,1,2,3,4.253968e-01,1,1,Right,Left,Right,Vertical,Foil primed,Right,None,Main study,C
3,1,6,2,5.000000e-02,8.751733e-02,1.750347e+00,76,40,3.107392e-01,3.916727e-01,8.348104e-03,8.333766e-02,7.244293e-06,4.000000e-01,8,0,2,1,1,2,3,9.004769e-01,1,1,Right,Left,Right,Vertical,Foil primed,Right,None,Main study,C
3,1,6,2,5.000000e-02,8.751733e-02,1.750347e+00,76,45,3.187975e-01,2.666159e-01,1.333608e-01,8.336603e-02,7.244293e-06,4.000000e-01,134,0,2,1,1,2,3,4.671032e-01,1,1,Right,Left,Right,Vertical,Foil primed,Right,None,Main study,C
3,1,6,2,5.000000e-02,8.751733e-02,1.750347e+00,76,45,3.106172e-01,2.667354e-01,1.333348e-01,8.334943e-02,6.942544e-06,4.000000e-01,134,1,2,0,0,2,3,4.587850e-01,0,1,Left,Right,Left,Vertical,Foil primed,Left,None,Main study,C
3,1,6,2,5.000000e-02,8.751733e-02,1.750347e+00,76,40,3.189611e-01,3.917089e-01,8.338143e-03,8.333706e-02,7.244293e-06,4.000000e-01,8,1,3,1,1,2,3,3.920844e-01,1,1,Right,Right,Right,Vertical,Target primed,Right,None,Main study,C
3,1,6,2,5.000000e-02,8.751733e-02,1.750347e+00,76,45,3.106604e-01,3.666881e-01,3.332812e-02,8.339712e-02,1.841248e-05,4.000000e-01,34,0,2,1,1,2,3,5.504161e-01,0,0,Left,Left,Right,Vertical,Foil primed,Right,None,Main study,C
3,1,6,2,5.000000e-02,8.751733e-02,1.750347e+00,76,40,3.187942e-01,2.666817e-01,1.333258e-01,8.338716e-02,7.244293e-06,4.000000e-01,134,1,2,0,0,2,3,4.670682e-01,1,0,Right,Right,Left,Vertical,Foil primed,Left,None,Main study,C
3,1,6,2,5.000000e-02,8.751733e-02,1.750347e+00,76,45,3.105837e-01,3.667403e-01,3.333899e-02,8.333857e-02,7.244293e-06,4.000000e-01,34,0,2,1,1,2,3,9.171700e-01,1,1,Right,Left,Right,Vertical,Foil primed,Right,None,Main study,C
3,1,6,2,5.000000e-02,8.751733e-02,1.750347e+00,76,35,3.187996e-01,3.667083e-01,3.332782e-02,8.333615e-02,6.942311e-06,4.000000e-01,34,1,3,1,1,2,3,5.171049e-01,0,0,Left,Right,Right,Vertical,Target primed,Right,None,Main study,C
3,1,6,2,5.000000e-02,8.751733e-02,1.750347e+00,76,55,3.189044e-01,3.666984e-01,3.333808e-02,8.333826e-02,7.244060e-06,4.000000e-01,34,1,3,1,1,2,3,4.670872e-01,0,0,Left,Right,Right,Vertical,Target primed,Right,None,Main study,C
3,1,6,2,5.000000e-02,8.751733e-02,1.750347e+00,76,50,3.189530e-01,3.916775e-01,8.377081e-03,8.332196e-02,6.942311e-06,4.000000e-01,8,0,2,1,1,2,3,4.087537e-01,1,1,Right,Left,Right,Vertical,Foil primed,Right,None,Main study,C
3,1,6,2,5.000000e-02,8.751733e-02,1.750347e+00,76,50,3.188730e-01,2.666612e-01,1.333783e-01,8.333585e-02,7.244060e-06,4.000000e-01,134,0,3,0,0,2,3,4.587183e-01,0,1,Left,Left,Left,Vertical,Target primed,Left,None,Main study,C
3,1,6,2,5.000000e-02,8.751733e-02,1.750347e+00,76,50,3.187302e-01,3.917391e-01,8.333011e-03,8.331412e-02,7.847790e-06,4.000000e-01,8,1,2,0,0,2,3,3.670748e-01,0,1,Left,Right,Left,Vertical,Foil primed,Left,None,Main study,C
3,1,6,2,5.000000e-02,8.751733e-02,1.750347e+00,76,40,3.106504e-01,2.666772e-01,1.333611e-01,8.329933e-02,7.848023e-06,4.000000e-01,134,1,2,0,0,2,3,4.505087e-01,1,0,Right,Right,Left,Vertical,Foil primed,Left,None,Main study,C
3,1,6,2,5.000000e-02,8.751733e-02,1.750347e+00,76,45,3.106942e-01,3.916953e-01,8.373760e-03,8.332800e-02,7.244293e-06,4.000000e-01,8,1,2,0,0,2,3,3.921164e-01,0,1,Left,Right,Left,Vertical,Foil primed,Left,None,Main study,C
3,1,6,2,5.000000e-02,8.751733e-02,1.750347e+00,76,50,3.105738e-01,3.667228e-01,3.331333e-02,8.333887e-02,6.942544e-06,4.000000e-01,34,0,3,0,0,2,3,4.337371e-01,1,0,Right,Left,Left,Vertical,Target primed,Left,None,Main study,C
3,1,6,2,5.000000e-02,8.751733e-02,1.750347e+00,76,35,3.106658e-01,3.667219e-01,3.332299e-02,8.333132e-02,7.244293e-06,4.000000e-01,34,1,3,1,1,2,3,3.087694e-01,0,0,Left,Right,Right,Vertical,Target primed,Right,None,Main study,C
3,1,6,2,5.000000e-02,8.751733e-02,1.750347e+00,76,50,3.189943e-01,3.667068e-01,3.333084e-02,8.333675e-02,6.942311e-06,4.000000e-01,34,0,2,1,1,2,3,6.837503e-01,0,0,Left,Left,Right,Vertical,Foil primed,Right,None,Main study,C
3,1,6,2,5.000000e-02,8.751733e-02,1.750347e+00,76,45,3.106767e-01,3.666836e-01,3.331876e-02,8.333343e-02,6.942544e-06,4.000000e-01,34,0,2,1,1,2,3,1.500548e+00,1,1,Right,Left,Right,Vertical,Foil primed,Right,None,Main study,C
3,1,6,2,5.000000e-02,8.751733e-02,1.750347e+00,76,35,3.183291e-01,3.917113e-01,8.327276e-03,8.330536e-02,7.244293e-06,4.000000e-01,8,1,2,0,0,2,3,4.504484e-01,1,0,Right,Right,Left,Vertical,Foil primed,Left,None,Main study,C
3,1,6,2,5.000000e-02,8.751733e-02,1.750347e+00,76,55,3.188618e-01,3.917019e-01,8.327880e-03,8.334430e-02,7.244060e-06,4.000000e-01,8,1,2,0,0,2,3,4.920995e-01,1,0,Right,Right,Left,Vertical,Foil primed,Left,None,Main study,C
3,1,6,2,5.000000e-02,8.751733e-02,1.750347e+00,76,40,3.106737e-01,2.666473e-01,1.333816e-01,8.329782e-02,7.244293e-06,4.000000e-01,134,1,2,0,0,2,3,4.754607e-01,0,1,Left,Right,Left,Vertical,Foil primed,Left,None,Main study,C
3,1,6,2,5.000000e-02,8.751733e-02,1.750347e+00,76,40,3.107039e-01,3.916690e-01,8.369535e-03,8.334551e-02,7.244293e-06,4.000000e-01,8,0,3,0,0,2,3,4.837889e-01,0,1,Left,Left,Left,Vertical,Target primed,Left,None,Main study,C
3,1,6,2,5.000000e-02,8.751733e-02,1.750347e+00,76,50,3.188256e-01,2.666681e-01,1.333502e-01,8.333857e-02,6.942544e-06,4.000000e-01,134,1,3,1,1,2,3,4.920902e-01,0,0,Left,Right,Right,Vertical,Target primed,Right,None,Main study,C
3,1,6,2,5.000000e-02,8.751733e-02,1.750347e+00,76,55,3.106133e-01,3.667189e-01,3.335257e-02,8.333525e-02,6.942311e-06,4.000000e-01,34,1,3,1,1,2,3,4.754374e-01,1,1,Right,Right,Right,Vertical,Target primed,Right,None,Main study,C
3,1,6,2,5.000000e-02,8.751733e-02,1.750347e+00,76,35,3.106658e-01,3.666616e-01,3.333506e-02,8.333826e-02,7.244060e-06,4.000000e-01,34,0,3,0,0,2,3,3.921668e-01,0,1,Left,Left,Left,Vertical,Target primed,Left,None,Main study,C
3,1,6,2,5.000000e-02,8.751733e-02,1.750347e+00,76,55,3.188881e-01,2.666612e-01,1.333719e-01,8.331472e-02,7.244293e-06,4.000000e-01,134,0,2,1,1,2,3,5.754595e-01,0,0,Left,Left,Right,Vertical,Foil primed,Right,None,Main study,C
3,1,6,2,5.000000e-02,8.751733e-02,1.750347e+00,76,50,3.189285e-01,2.666841e-01,1.333529e-01,8.334551e-02,7.244293e-06,4.000000e-01,134,0,2,1,1,2,3,5.837726e-01,1,1,Right,Left,Right,Vertical,Foil primed,Right,None,Main study,C
3,1,6,2,5.000000e-02,8.751733e-02,1.750347e+00,76,55,3.186994e-01,3.667038e-01,3.335831e-02,8.330959e-02,6.942311e-06,4.000000e-01,34,1,3,1,1,2,3,5.588143e-01,1,1,Right,Right,Right,Vertical,Target primed,Right,None,Main study,C
3,1,6,2,5.000000e-02,8.751733e-02,1.750347e+00,76,45,3.188881e-01,3.916835e-01,8.355650e-03,8.331834e-02,6.942544e-06,4.000000e-01,8,0,3,0,0,2,3,5.921186e-01,0,1,Left,Left,Left,Vertical,Target primed,Left,None,Main study,C
3,1,6,2,5.000000e-02,8.751733e-02,1.750347e+00,76,35,3.189062e-01,2.667010e-01,1.332820e-01,8.336543e-02,7.244293e-06,4.000000e-01,134,0,2,1,1,2,3,4.921282e-01,1,1,Right,Left,Right,Vertical,Foil primed,Right,None,Main study,C
3,1,6,2,5.000000e-02,8.751733e-02,1.750347e+00,76,35,3.189014e-01,3.917028e-01,8.346896e-03,8.331804e-02,7.244293e-06,4.000000e-01,8,1,3,1,1,2,3,4.421401e-01,1,1,Right,Right,Right,Vertical,Target primed,Right,None,Main study,C
3,1,6,2,5.000000e-02,8.751733e-02,1.750347e+00,76,40,3.187906e-01,3.667035e-01,3.333235e-02,8.335728e-02,7.244293e-06,4.000000e-01,34,1,3,1,1,2,3,4.420788e-01,1,1,Right,Right,Right,Vertical,Target primed,Right,None,Main study,C
3,1,6,2,5.000000e-02,8.751733e-02,1.750347e+00,76,45,3.106640e-01,3.666987e-01,3.334050e-02,8.334853e-02,7.244060e-06,4.000000e-01,34,1,3,1,1,2,3,3.837547e-01,1,1,Right,Right,Right,Vertical,Target primed,Right,None,Main study,C
3,1,6,2,5.000000e-02,8.751733e-02,1.750347e+00,76,50,3.170188e-01,3.666972e-01,3.333959e-02,8.333736e-02,6.942311e-06,4.000000e-01,34,0,2,1,1,2,3,5.337745e-01,0,0,Left,Left,Right,Vertical,Foil primed,Right,None,Main study,C
3,1,6,2,5.000000e-02,8.751733e-02,1.750347e+00,76,45,3.107006e-01,3.666978e-01,3.334020e-02,8.334943e-02,7.244060e-06,4.000000e-01,34,1,3,1,1,2,3,6.337589e-01,1,1,Right,Right,Right,Vertical,Target primed,Right,None,Main study,C
3,1,6,2,5.000000e-02,8.751733e-02,1.750347e+00,76,45,3.186919e-01,3.667575e-01,3.328767e-02,8.331864e-02,7.546041e-06,4.000000e-01,34,0,2,1,1,2,3,7.337979e-01,1,1,Right,Left,Right,Vertical,Foil primed,Right,None,Main study,C
3,1,6,2,5.000000e-02,8.751733e-02,1.750347e+00,76,55,3.187444e-01,2.666663e-01,1.333563e-01,8.333706e-02,7.244293e-06,4.000000e-01,134,0,2,1,1,2,3,5.004715e-01,1,1,Right,Left,Right,Vertical,Foil primed,Right,None,Main study,C
3,1,6,2,5.000000e-02,8.751733e-02,1.750347e+00,76,45,3.106858e-01,2.666905e-01,1.333490e-01,8.333766e-02,6.942311e-06,4.000000e-01,134,0,2,1,1,2,3,4.670963e-01,1,1,Right,Left,Right,Vertical,Foil primed,Right,None,Main study,C
3,1,6,2,5.000000e-02,8.751733e-02,1.750347e+00,76,35,3.108213e-01,3.917318e-01,8.335426e-03,8.335849e-02,7.244293e-06,4.000000e-01,8,0,2,1,1,2,3,1.017143e+00,1,1,Right,Left,Right,Vertical,Foil primed,Right,None,Main study,C
3,1,6,2,5.000000e-02,8.751733e-02,1.750347e+00,76,35,3.186092e-01,3.667189e-01,3.331907e-02,8.333887e-02,6.942311e-06,4.000000e-01,34,0,2,1,1,2,3,7.171328e-01,0,0,Left,Left,Right,Vertical,Foil primed,Right,None,Main study,C
3,1,6,2,5.000000e-02,8.751733e-02,1.750347e+00,76,35,3.186146e-01,3.917152e-01,8.300412e-03,8.336181e-02,7.546274e-06,4.000000e-01,8,1,2,0,0,2,3,9.171939e-01,0,1,Left,Right,Left,Vertical,Foil primed,Left,None,Main study,C
3,1,6,2,5.000000e-02,8.751733e-02,1.750347e+00,76,50,3.187710e-01,3.917031e-01,8.333313e-03,8.329661e-02,7.244293e-06,4.000000e-01,8,1,3,1,1,2,3,8.004925e-01,1,1,Right,Right,Right,Vertical,Target primed,Right,None,Main study,C
3,1,6,2,5.000000e-02,8.751733e-02,1.750347e+00,76,45,3.187411e-01,3.916935e-01,8.334521e-03,8.334038e-02,7.244293e-06,4.000000e-01,8,1,2,0,0,2,3,6.754641e-01,0,1,Left,Right,Left,Vertical,Foil primed,Left,None,Main study,C
3,1,6,2,5.000000e-02,8.751733e-02,1.750347e+00,76,35,3.185708e-01,3.667138e-01,3.335740e-02,8.332377e-02,6.942544e-06,4.000000e-01,34,0,3,0,0,2,3,6.337659e-01,1,0,Right,Left,Left,Vertical,Target primed,Left,None,Main study,C
3,1,6,2,5.000000e-02,8.751733e-02,1.750347e+00,76,40,3.187356e-01,2.667388e-01,1.333502e-01,8.333766e-02,7.244293e-06,4.000000e-01,134,1,3,1,1,2,3,6.671196e-01,1,1,Right,Right,Right,Vertical,Target primed,Right,None,Main study,C
3,1,6,2,5.000000e-02,8.751733e-02,1.750347e+00,76,55,3.187628e-01,2.666881e-01,1.333499e-01,8.335758e-02,7.244293e-06,4.000000e-01,134,1,2,0,0,2,3,4.337736e-01,0,1,Left,Right,Left,Vertical,Foil primed,Left,None,Main study,C
3,1,6,2,5.000000e-02,8.751733e-02,1.750347e+00,76,45,3.107326e-01,3.916962e-01,8.318825e-03,8.335275e-02,7.244293e-06,4.000000e-01,8,0,2,1,1,2,3,5.754372e-01,1,1,Right,Left,Right,Vertical,Foil primed,Right,None,Main study,C
3,1,6,2,5.000000e-02,8.751733e-02,1.750347e+00,76,45,3.187423e-01,3.917110e-01,8.326974e-03,8.326944e-02,7.546041e-06,4.000000e-01,8,1,2,0,0,2,3,3.754775e-01,0,1,Left,Right,Left,Vertical,Foil primed,Left,None,Main study,C
3,1,6,2,5.000000e-02,8.751733e-02,1.750347e+00,76,45,3.106755e-01,3.667068e-01,3.334804e-02,8.332045e-02,6.942311e-06,4.000000e-01,34,1,2,0,0,2,3,6.671091e-01,0,1,Left,Right,Left,Vertical,Foil primed,Left,None,Main study,C
3,1,7,2,5.000000e-02,8.751733e-02,1.750347e+00,76,55,3.182802e-01,3.666848e-01,3.337461e-02,8.332408e-02,7.244293e-06,4.000000e-01,34,1,3,1,1,2,3,5.504267e-01,1,1,Right,Right,Right,Vertical,Target primed,Right,None,Main study,C
3,1,7,2,5.000000e-02,8.751733e-02,1.750347e+00,76,35,3.189014e-01,2.666811e-01,1.333828e-01,8.331623e-02,7.244293e-06,4.000000e-01,134,0,3,0,0,2,3,4.587669e-01,1,0,Right,Left,Left,Vertical,Target primed,Left,None,Main study,C
3,1,7,2,5.000000e-02,8.751733e-02,1.750347e+00,76,35,3.189747e-01,3.916509e-01,8.349311e-03,8.335577e-02,7.244060e-06,4.000000e-01,8,0,3,0,0,2,3,3.754238e-01,0,1,Left,Left,Left,Vertical,Target primed,Left,None,Main study,C
3,1,7,2,5.000000e-02,8.751733e-02,1.750347e+00,76,50,3.188177e-01,2.666696e-01,1.332926e-01,8.335969e-02,7.244293e-06,4.000000e-01,134,0,3,0,0,2,3,5.004989e-01,1,0,Right,Left,Left,Vertical,Target primed,Left,None,Main study,C
3,1,7,2,5.000000e-02,8.751733e-02,1.750347e+00,76,35,3.188500e-01,3.667008e-01,3.333748e-02,8.333042e-02,7.244060e-06,4.000000e-01,34,0,2,1,1,2,3,5.420997e-01,1,1,Right,Left,Right,Vertical,Foil primed,Right,None,Main study,C
3,1,7,2,5.000000e-02,8.751733e-02,1.750347e+00,76,50,3.187592e-01,3.917019e-01,8.336331e-03,8.333555e-02,7.244293e-06,4.000000e-01,8,0,2,1,1,2,3,5.504551e-01,1,1,Right,Left,Right,Vertical,Foil primed,Right,None,Main study,C
3,1,7,2,5.000000e-02,8.751733e-02,1.750347e+00,76,50,3.187921e-01,3.667406e-01,3.335016e-02,8.330415e-02,6.942544e-06,4.000000e-01,34,1,2,0,0,2,3,4.087833e-01,1,0,Right,Right,Left,Vertical,Foil primed,Left,None,Main study,C
3,1,7,2,5.000000e-02,8.751733e-02,1.750347e+00,76,55,3.189219e-01,2.666905e-01,1.332576e-01,8.336271e-02,7.244293e-06,4.000000e-01,134,0,2,1,1,2,3,4.671720e-01,1,1,Right,Left,Right,Vertical,Foil primed,Right,None,Main study,C
3,1,7,2,5.000000e-02,8.751733e-02,1.750347e+00,76,50,3.189273e-01,3.666972e-01,3.333989e-02,8.333766e-02,6.942311e-06,4.000000e-01,34,1,3,1,1,2,3,4.587578e-01,1,1,Right,Right,Right,Vertical,Target primed,Right,None,Main study,C
3,1,7,2,5.000000e-02,8.751733e-02,1.750347e+00,76,35,3.189406e-01,2.666352e-01,1.333641e-01,8.334038e-02,7.244060e-06,4.000000e-01,134,1,2,0,0,2,3,4.587781e-01,0,1,Left,Right,Left,Vertical,Foil primed,Left,None,Main study,C
3,1,7,2,5.000000e-02,8.751733e-02,1.750347e+00,76,50,3.188820e-01,3.666727e-01,3.335770e-02,8.331713e-02,6.942311e-06,4.000000e-01,34,0,3,0,0,2,3,5.670975e-01,1,0,Right,Left,Left,Vertical,Target primed,Left,None,Main study,C
3,1,7,2,5.000000e-02,8.751733e-02,1.750347e+00,76,55,3.188350e-01,3.667041e-01,3.333476e-02,8.337901e-02,7.244293e-06,4.000000e-01,34,1,2,0,0,2,3,9.171356e-01,1,0,Right,Right,Left,Vertical,Foil primed,Left,None,Main study,C
3,1,7,2,5.000000e-02,8.751733e-02,1.750347e+00,76,50,3.186840e-01,2.666772e-01,1.333614e-01,8.333585e-02,6.942544e-06,4.000000e-01,134,1,2,0,0,2,3,7.670910e-01,1,0,Right,Right,Left,Vertical,Foil primed,Left,None,Main study,C
3,1,7,2,5.000000e-02,8.751733e-02,1.750347e+00,76,40,3.187845e-01,2.666962e-01,1.333119e-01,8.337841e-02,7.244293e-06,4.000000e-01,134,1,3,1,1,2,3,1.583874e+00,0,0,Left,Right,Right,Vertical,Target primed,Right,None,Main study,C
3,1,7,2,5.000000e-02,8.751733e-02,1.750347e+00,76,45,3.181549e-01,3.916446e-01,8.324560e-03,8.335909e-02,7.546041e-06,4.000000e-01,8,1,2,0,0,2,3,8.588079e-01,0,1,Left,Right,Left,Vertical,Foil primed,Left,None,Main study,C
3,1,7,2,5.000000e-02,8.751733e-02,1.750347e+00,76,45,3.187695e-01,3.667038e-01,3.333476e-02,8.333645e-02,7.244293e-06,4.000000e-01,34,0,3,0,0,2,3,6.171382e-01,0,1,Left,Left,Left,Vertical,Target primed,Left,None,Main study,C
3,1,7,2,5.000000e-02,8.751733e-02,1.750347e+00,76,45,3.188039e-01,3.916817e-01,8.341765e-03,8.335879e-02,7.244293e-06,4.000000e-01,8,0,3,0,0,2,3,6.087973e-01,0,1,Left,Left,Left,Vertical,Target primed,Left,None,Main study,C
3,1,7,2,5.000000e-02,8.751733e-02,1.750347e+00,76,45,3.189844e-01,3.666178e-01,3.334080e-02,8.333675e-02,6.942544e-06,4.000000e-01,34,1,3,1,1,2,3,6.337812e-01,0,0,Left,Right,Right,Vertical,Target primed,Right,None,Main study,C
3,1,7,2,5.000000e-02,8.751733e-02,1.750347e+00,76,50,3.187797e-01,3.917379e-01,8.329087e-03,8.333675e-02,7.244293e-06,4.000000e-01,8,1,3,1,1,2,3,5.254799e-01,1,1,Right,Right,Right,Vertical,Target primed,Right,None,Main study,C
3,1,7,2,5.000000e-02,8.751733e-02,1.750347e+00,76,50,3.189225e-01,3.916633e-01,8.334521e-03,8.334430e-02,6.942311e-06,4.000000e-01,8,1,3,1,1,2,3,5.088163e-01,1,1,Right,Right,Right,Vertical,Target primed,Right,None,Main study,C
3,1,7,2,5.000000e-02,8.751733e-02,1.750347e+00,76,40,3.186683e-01,3.916953e-01,8.327578e-03,8.330748e-02,7.244293e-06,4.000000e-01,8,0,2,1,1,2,3,7.338420e-01,1,1,Right,Left,Right,Vertical,Foil primed,Right,None,Main study,C
3,1,7,2,5.000000e-02,8.751733e-02,1.750347e+00,76,55,3.187975e-01,2.667038e-01,1.333366e-01,8.333585e-02,7.244293e-06,4.000000e-01,134,1,2,0,0,2,3,5.420825e-01,0,1,Left,Right,Left,Vertical,Foil primed,Left,None,Main study,C
3,1,7,2,5.000000e-02,8.751733e-02,1.750347e+00,76,50,3.189155e-01,3.667120e-01,3.336585e-02,8.332015e-02,6.942544e-06,4.000000e-01,34,0,2,1,1,2,3,4.754287e-01,1,1,Right,Left,Right,Vertical,Foil primed,Right,None,Main study,C
3,1,7,2,5.000000e-02,8.751733e-02,1.750347e+00,76,55,3.106227e-01,3.917865e-01,8.302525e-03,8.331955e-02,7.244293e-06,4.000000e-01,8,0,2,1,1,2,3,4.503976e-01,1,1,Right,Left,Right,Vertical,Foil primed,Right,None,Main study,C
3,1,7,2,5.000000e-02,8.751733e-02,1.750347e+00,76,45,3.189168e-01,3.667186e-01,3.331726e-02,8.333766e-02,6.942544e-06,4.000000e-01,34,1,3,1,1,2,3,4.338059e-01,0,0,Left,Right,Right,Vertical,Target primed,Right,None,Main study,C
3,1,7,2,5.000000e-02,8.751733e-02,1.750347e+00,76,45,3.107751e-01,3.666558e-01,3.334955e-02,8.335185e-02,6.942544e-06,4.000000e-01,34,0,3,0,0,2,3,5.087547e-01,0,1,Left,Left,Left,Vertical,Target primed,Left,None,Main study,C
3,1,7,2,5.000000e-02,8.751733e-02,1.750347e+00,76,35,3.187287e-01,2.666724e-01,1.333985e-01,8.333675e-02,7.244293e-06,4.000000e-01,134,0,2,1,1,2,3,4.754229e-01,1,1,Right,Left,Right,Vertical,Foil primed,Right,None,Main study,C
3,1,7,2,5.000000e-02,8.751733e-02,1.750347e+00,76,55,3.187701e-01,3.666673e-01,3.334834e-02,8.333645e-02,6.942544e-06,4.000000e-01,34,0,3,0,0,2,3,9.004603e-01,1,0,Right,Left,Left,Vertical,Target primed,Left,None,Main study,C
3,1,7,2,5.000000e-02,8.751733e-02,1.750347e+00,76,50,3.187073e-01,3.667488e-01,3.334412e-02,8.333253e-02,7.244293e-06,4.000000e-01,34,0,3,0,0,2,3,5.254590e-01,1,0,Right,Left,Left,Vertical,Target primed,Left,None,Main study,C
3,1,7,2,5.000000e-02,8.751733e-02,1.750347e+00,76,55,3.189222e-01,2.666778e-01,1.333584e-01,8.329691e-02,7.546041e-06,4.000000e-01,134,0,3,0,0,2,3,6.171403e-01,0,1,Left,Left,Left,Vertical,Target primed,Left,None,Main study,C
3,1,7,2,5.000000e-02,8.751733e-02,1.750347e+00,76,50,3.187532e-01,2.667439e-01,1.333279e-01,8.333796e-02,7.244293e-06,4.000000e-01,134,1,3,1,1,2,3,5.337869e-01,1,1,Right,Right,Right,Vertical,Target primed,Right,None,Main study,C
3,1,7,2,5.000000e-02,8.751733e-02,1.750347e+00,76,55,3.107516e-01,3.917101e-01,8.345689e-03,8.331019e-02,7.244293e-06,4.000000e-01,8,0,3,0,0,2,3,4.505078e-01,0,1,Left,Left,Left,Vertical,Target primed,Left,None,Main study,C
3,1,7,2,5.000000e-02,8.751733e-02,1.750347e+00,76,55,3.189599e-01,2.666066e-01,1.334438e-01,8.330566e-02,7.546274e-06,4.000000e-01,134,0,3,0,0,2,3,6.587806e-01,1,0,Right,Left,Left,Vertical,Target primed,Left,None,Main study,C
3,1,7,2,5.000000e-02,8.751733e-02,1.750347e+00,76,40,3.187037e-01,3.916947e-01,8.360781e-03,8.326280e-02,7.546041e-06,4.000000e-01,8,0,3,0,0,2,3,5.421396e-01,0,1,Left,Left,Left,Vertical,Target primed,Left,None,Main study,C
3,1,7,2,5.000000e-02,8.751733e-02,1.750347e+00,76,35,3.107099e-01,3.667156e-01,3.332148e-02,8.333615e-02,6.942311e-06,4.000000e-01,34,1,2,0,0,2,3,4.671159e-01,0,1,Left,Right,Left,Vertical,Foil primed,Left,None,Main study,C
3,1,7,2,5.000000e-02,8.751733e-02,1.750347e+00,76,35,3.189484e-01,2.666878e-01,1.333496e-01,8.335577e-02,6.942544e-06,4.000000e-01,134,1,3,1,1,2,3,4.837554e-01,1,1,Right,Right,Right,Vertical,Target primed,Right,None,Main study,C
3,1,7,2,5.000000e-02,8.751733e-02,1.750347e+00,76,45,3.106236e-01,3.666996e-01,3.333929e-02,8.335034e-02,7.847790e-06,4.000000e-01,34,1,3,1,1,2,3,6.670873e-01,0,0,Left,Right,Right,Vertical,Target primed,Right,None,Main study,C
3,1,7,2,5.000000e-02,8.751733e-02,1.750347e+00,76,55,3.186285e-01,3.916479e-01,8.355046e-03,8.333706e-02,7.546041e-06,4.000000e-01,8,1,2,0,0,2,3,6.671556e-01,0,1,Left,Right,Left,Vertical,Foil primed,Left,None,Main study,C
3,1,7,2,5.000000e-02,8.751733e-02,1.750347e+00,76,35,3.186988e-01,3.667289e-01,3.332631e-02,8.336815e-02,6.942311e-06,4.000000e-01,34,0,2,1,1,2,3,4.337470e-01,1,1,Right,Left,Right,Vertical,Foil primed,Right,None,Main study,C
3,1,7,2,5.000000e-02,8.751733e-02,1.750347e+00,76,45,3.171763e-01,2.666582e-01,1.333816e-01,8.336060e-02,7.546041e-06,4.000000e-01,134,1,2,0,0,2,3,6.420795e-01,0,1,Left,Right,Left,Vertical,Foil primed,Left,None,Main study,C
3,1,7,2,5.000000e-02,8.751733e-02,1.750347e+00,76,40,3.187915e-01,2.666573e-01,1.333798e-01,8.333766e-02,7.244293e-06,4.000000e-01,134,1,2,0,0,2,3,5.838191e-01,0,1,Left,Right,Left,Vertical,Foil primed,Left,None,Main study,C
3,1,7,2,5.000000e-02,8.751733e-02,1.750347e+00,76,40,3.188516e-01,3.666791e-01,3.337068e-02,8.333675e-02,7.244293e-06,4.000000e-01,34,1,2,0,0,2,3,4.503976e-01,1,0,Right,Right,Left,Vertical,Foil primed,Left,None,Main study,C
3,1,7,2,5.000000e-02,8.751733e-02,1.750347e+00,76,50,3.187966e-01,2.667155e-01,1.333218e-01,8.333736e-02,6.942311e-06,4.000000e-01,134,0,3,0,0,2,3,1.800556e+00,1,0,Right,Left,Left,Vertical,Target primed,Left,None,Main study,C
3,1,7,2,5.000000e-02,8.751733e-02,1.750347e+00,76,50,3.180514e-01,2.666983e-01,1.333496e-01,8.333706e-02,7.244293e-06,4.000000e-01,134,0,2,1,1,2,3,5.171185e-01,1,1,Right,Left,Right,Vertical,Foil primed,Right,None,Main study,C
3,1,7,2,5.000000e-02,8.751733e-02,1.750347e+00,76,45,3.106613e-01,2.667424e-01,1.333372e-01,8.333887e-02,7.244060e-06,4.000000e-01,134,1,2,0,0,2,3,5.671286e-01,0,1,Left,Right,Left,Vertical,Foil primed,Left,None,Main study,C
3,1,7,2,5.000000e-02,8.751733e-02,1.750347e+00,76,35,3.105958e-01,2.666787e-01,1.333886e-01,8.333917e-02,7.244293e-06,4.000000e-01,134,0,3,0,0,2,3,6.420859e-01,0,1,Left,Left,Left,Vertical,Target primed,Left,None,Main study,C
3,1,7,2,5.000000e-02,8.751733e-02,1.750347e+00,76,45,3.188636e-01,2.666135e-01,1.333650e-01,8.342218e-02,9.055249e-06,4.000000e-01,134,0,3,0,0,2,3,7.753905e-01,0,1,Left,Left,Left,Vertical,Target primed,Left,None,Main study,C
3,1,7,2,5.000000e-02,8.751733e-02,1.750347e+00,76,40,3.189303e-01,2.666576e-01,1.333508e-01,8.336754e-02,7.244293e-06,4.000000e-01,134,0,2,1,1,2,3,5.087514e-01,0,0,Left,Left,Right,Vertical,Foil primed,Right,None,Main study,C
3,1,7,2,5.000000e-02,8.751733e-02,1.750347e+00,76,40,3.106713e-01,3.667240e-01,3.334412e-02,8.332800e-02,6.942544e-06,4.000000e-01,34,0,3,0,0,2,3,6.921368e-01,0,1,Left,Left,Left,Vertical,Target primed,Left,None,Main study,C
3,1,7,2,5.000000e-02,8.751733e-02,1.750347e+00,76,50,3.186219e-01,3.666591e-01,3.335167e-02,8.331925e-02,7.244293e-06,4.000000e-01,34,1,2,0,0,2,3,5.338059e-01,1,0,Right,Right,Left,Vertical,Foil primed,Left,None,Main study,C
3,1,7,2,5.000000e-02,8.751733e-02,1.750347e+00,76,40,3.188618e-01,2.667659e-01,1.333427e-01,8.332921e-02,7.244293e-06,4.000000e-01,134,1,2,0,0,2,3,5.088416e-01,0,1,Left,Right,Left,Vertical,Foil primed,Left,None,Main study,C
3,1,7,2,5.000000e-02,8.751733e-02,1.750347e+00,76,40,3.189234e-01,3.666510e-01,3.338668e-02,8.333736e-02,7.546041e-06,4.000000e-01,34,0,2,1,1,2,3,8.921517e-01,0,0,Left,Left,Right,Vertical,Foil primed,Right,None,Main study,C
3,1,7,2,5.000000e-02,8.751733e-02,1.750347e+00,76,50,3.188965e-01,3.916890e-01,8.365610e-03,8.332106e-02,7.244293e-06,4.000000e-01,8,1,3,1,1,2,3,1.083813e+00,1,1,Right,Right,Right,Vertical,Target primed,Right,None,Main study,C
3,1,7,2,5.000000e-02,8.751733e-02,1.750347e+00,76,35,3.185147e-01,2.667508e-01,1.333324e-01,8.327518e-02,7.546041e-06,4.000000e-01,134,1,3,1,1,2,3,7.005072e-01,0,0,Left,Right,Right,Vertical,Target primed,Right,None,Main study,C
3,1,7,2,5.000000e-02,8.751733e-02,1.750347e+00,76,40,3.189071e-01,2.666887e-01,1.333547e-01,8.332679e-02,7.244293e-06,4.000000e-01,134,0,3,0,0,2,3,6.337909e-01,0,1,Left,Left,Left,Vertical,Target primed,Left,None,Main study,C
3,1,7,2,5.000000e-02,8.751733e-02,1.750347e+00,76,40,3.188778e-01,2.666458e-01,1.333490e-01,8.333464e-02,6.942544e-06,4.000000e-01,134,1,2,0,0,2,3,5.421809e-01,0,1,Left,Right,Left,Vertical,Foil primed,Left,None,Main study,C
3,1,7,2,5.000000e-02,8.751733e-02,1.750347e+00,76,55,3.106671e-01,3.666591e-01,3.333265e-02,8.334098e-02,6.942311e-06,4.000000e-01,34,1,2,0,0,2,3,5.504240e-01,0,1,Left,Right,Left,Vertical,Foil primed,Left,None,Main study,C
3,1,7,2,5.000000e-02,8.751733e-02,1.750347e+00,76,35,3.188748e-01,2.666678e-01,1.333291e-01,8.333706e-02,7.244293e-06,4.000000e-01,134,0,2,1,1,2,3,4.671352e-01,1,1,Right,Left,Right,Vertical,Foil primed,Right,None,Main study,C
3,1,7,2,5.000000e-02,8.751733e-02,1.750347e+00,76,35,3.189234e-01,3.666960e-01,3.330971e-02,8.334581e-02,7.847790e-06,4.000000e-01,34,0,3,0,0,2,3,6.254401e-01,1,0,Right,Left,Left,Vertical,Target primed,Left,None,Main study,C
3,1,7,2,5.000000e-02,8.751733e-02,1.750347e+00,76,55,3.188347e-01,2.667327e-01,1.333490e-01,8.334702e-02,7.244293e-06,4.000000e-01,134,1,3,1,1,2,3,5.087565e-01,1,1,Right,Right,Right,Vertical,Target primed,Right,None,Main study,C
3,1,8,2,5.000000e-02,8.751733e-02,1.750347e+00,76,50,3.192826e-01,3.667017e-01,3.338547e-02,8.333102e-02,6.942311e-06,4.000000e-01,34,0,2,1,1,2,3,4.834553e-01,1,1,Right,Left,Right,Vertical,Foil primed,Right,None,Main study,C
3,1,8,2,5.000000e-02,8.751733e-02,1.750347e+00,76,35,3.189373e-01,2.666696e-01,1.333674e-01,8.331774e-02,6.942311e-06,4.000000e-01,134,0,3,0,0,2,3,8.588151e-01,0,1,Left,Left,Left,Vertical,Target primed,Left,None,Main study,C
3,1,8,2,5.000000e-02,8.751733e-02,1.750347e+00,76,50,3.187541e-01,3.666872e-01,3.330850e-02,8.333796e-02,7.244293e-06,4.000000e-01,34,0,2,1,1,2,3,4.671452e-01,1,1,Right,Left,Right,Vertical,Foil primed,Right,None,Main study,C
3,1,8,2,5.000000e-02,8.751733e-02,1.750347e+00,76,35,3.188108e-01,3.917001e-01,8.336935e-03,8.333796e-02,7.244293e-06,4.000000e-01,8,0,3,0,0,2,3,4.004165e-01,0,1,Left,Left,Left,Vertical,Target primed,Left,None,Main study,C
3,1,8,2,5.000000e-02,8.751733e-02,1.750347e+00,76,55,3.106194e-01,3.667237e-01,3.334533e-02,8.332710e-02,7.244060e-06,4.000000e-01,34,0,2,1,1,2,3,4.504396e-01,1,1,Right,Left,Right,Vertical,Foil primed,Right,None,Main study,C
3,1,8,2,5.000000e-02,8.751733e-02,1.750347e+00,76,50,3.106948e-01,2.666902e-01,1.333505e-01,8.335728e-02,6.942544e-06,4.000000e-01,134,1,2,0,0,2,3,4.254068e-01,0,1,Left,Right,Left,Vertical,Foil primed,Left,None,Main study,C
3,1,8,2,5.000000e-02,8.751733e-02,1.750347e+00,76,55,3.170254e-01,3.666471e-01,3.334925e-02,8.334007e-02,1.629954e-05,4.000000e-01,34,1,3,1,1,2,3,5.504723e-01,1,1,Right,Right,Right,Vertical,Target primed,Right,None,Main study,C
3,1,8,2,5.000000e-02,8.751733e-02,1.750347e+00,76,45,3.189113e-01,3.917179e-01,8.319428e-03,8.332438e-02,7.546041e-06,4.000000e-01,8,1,2,0,0,2,3,3.671116e-01,1,0,Right,Right,Left,Vertical,Foil primed,Left,None,Main study,C
3,1,8,2,5.000000e-02,8.751733e-02,1.750347e+00,76,55,3.189095e-01,3.667533e-01,3.329009e-02,8.338384e-02,7.244293e-06,4.000000e-01,34,0,3,0,0,2,3,8.588118e-01,1,0,Right,Left,Left,Vertical,Target primed,Left,None,Main study,C
3,1,8,2,5.000000e-02,8.751733e-02,1.750347e+00,76,50,3.186852e-01,3.917137e-01,8.347500e-03,8.332800e-02,6.942544e-06,4.000000e-01,8,0,2,1,1,2,3,5.171149e-01,1,1,Right,Left,Right,Vertical,Foil primed,Right,None,Main study,C
3,1,8,2,5.000000e-02,8.751733e-02,1.750347e+00,76,55,3.106707e-01,3.916594e-01,8.337237e-03,8.333887e-02,7.244293e-06,4.000000e-01,8,0,2,1,1,2,3,4.421428e-01,0,0,Left,Left,Right,Vertical,Foil primed,Right,None,Main study,C
3,1,8,2,5.000000e-02,8.751733e-02,1.750347e+00,76,50,3.107039e-01,2.666980e-01,1.333409e-01,8.333494e-02,7.244293e-06,4.000000e-01,134,1,2,0,0,2,3,5.170889e-01,0,1,Left,Right,Left,Vertical,Foil primed,Left,None,Main study,C
3,1,8,2,5.000000e-02,8.751733e-02,1.750347e+00,76,45,3.106191e-01,3.667397e-01,3.330669e-02,8.335728e-02,7.847790e-06,4.000000e-01,34,1,2,0,0,2,3,4.754238e-01,0,1,Left,Right,Left,Vertical,Foil primed,Left,None,Main study,C
3,1,8,2,5.000000e-02,8.751733e-02,1.750347e+00,76,35,3.187667e-01,2.666597e-01,1.333372e-01,8.333675e-02,7.244293e-06,4.000000e-01,134,1,3,1,1,2,3,6.004694e-01,0,0,Left,Right,Right,Vertical,Target primed,Right,None,Main study,C
3,1,8,2,5.000000e-02,8.751733e-02,1.750347e+00,76,35,3.189644e-01,3.666558e-01,3.333808e-02,8.333615e-02,7.244293e-06,4.000000e-01,34,1,2,0,0,2,3,5.087945e-01,0,1,Left,Right,Left,Vertical,Foil primed,Left,None,Main study,C
3,1,8,2,5.000000e-02,8.751733e-02,1.750347e+00,76,50,3.106873e-01,3.916386e-01,8.381005e-03,8.330929e-02,7.244060e-06,4.000000e-01,8,0,2,1,1,2,3,4.504275e-01,1,1,Right,Left,Right,Vertical,Foil primed,Right,None,Main study,C
3,1,8,2,5.000000e-02,8.751733e-02,1.750347e+00,76,35,3.106776e-01,3.916630e-01,8.336332e-03,8.333615e-02,6.942544e-06,4.000000e-01,8,0,3,0,0,2,3,5.171662e-01,0,1,Left,Left,Left,Vertical,Target primed,Left,None,Main study,C
3,1,8,2,5.000000e-02,8.751733e-02,1.750347e+00,76,55,3.106876e-01,3.666558e-01,3.333869e-02,8.334762e-02,7.244293e-06,4.000000e-01,34,1,3,1,1,2,3,5.754819e-01,0,0,Left,Right,Right,Vertical,Target primed,Right,None,Main study,C
3,1,8,2,5.000000e-02,8.751733e-02,1.750347e+00,76,35,3.189134e-01,3.917348e-01,8.335728e-03,8.331925e-02,9.055249e-06,4.000000e-01,8,0,2,1,1,2,3,4.587590e-01,0,0,Left,Left,Right,Vertical,Foil primed,Right,None,Main study,C
3,1,8,2,5.000000e-02,8.751733e-02,1.750347e+00,76,55,3.187655e-01,3.917481e-01,8.290753e-03,8.341071e-02,7.546041e-06,4.000000e-01,8,0,3,0,0,2,3,5.587289e-01,0,1,Left,Left,Left,Vertical,Target primed,Left,None,Main study,C
3,1,8,2,5.000000e-02,8.751733e-02,1.750347e+00,76,50,3.186741e-01,3.917306e-01,8.336331e-03,8.333706e-02,6.942311e-06,4.000000e-01,8,0,2,1,1,2,3,4.754362e-01,1,1,Right,Left,Right,Vertical,Foil primed,Right,None,Main study,C
3,1,8,2,5.000000e-02,8.751733e-02,1.750347e+00,76,35,3.189391e-01,3.916672e-01,8.335728e-03,8.333887e-02,7.244293e-06,4.000000e-01,8,0,2,1,1,2,3,4.921312e-01,1,1,Right,Left,Right,Vertical,Foil primed,Right,None,Main study,C
3,1,8,2,5.000000e-02,8.751733e-02,1.750347e+00,76,35,3.106984e-01,2.666733e-01,1.333351e-01,8.334219e-02,7.244293e-06,4.000000e-01,134,0,2,1,1,2,3,4.671388e-01,1,1,Right,Left,Right,Vertical,Foil primed,Right,None,Main study,C
3,1,8,2,5.000000e-02,8.751733e-02,1.750347e+00,76,50,3.106390e-01,3.916893e-01,8.341161e-03,8.333404e-02,6.942544e-06,4.000000e-01,8,1,2,0,0,2,3,4.504638e-01,1,0,Right,Right,Left,Vertical,Foil primed,Left,None,Main study,C
3,1,8,2,5.000000e-02,8.751733e-02,1.750347e+00,76,45,3.106417e-01,2.666938e-01,1.333442e-01,8.333796e-02,6.942544e-06,4.000000e-01,134,1,2,0,0,2,3,4.420924e-01,0,1,Left,Right,Left,Vertical,Foil primed,Left,None,Main study,C
3,1,8,2,5.000000e-02,8.751733e-02,1.750347e+00,76,35,3.188413e-01,3.666760e-01,3.335468e-02,8.332498e-02,7.847790e-06,4.000000e-01,34,0,3,0,0,2,3,4.587771e-01,0,1,Left,Left,Left,Vertical,Target primed,Left,None,Main study,C
3,1,8,2,5.000000e-02,8.751733e-02,1.750347e+00,76,50,3.187544e-01,2.667354e-01,1.333656e-01,8.332076e-02,7.244293e-06,4.000000e-01,134,0,3,0,0,2,3,4.921424e-01,0,1,Left,Left,Left,Vertical,Target primed,Left,None,Main study,C
3,1,8,2,5.000000e-02,8.751733e-02,1.750347e+00,76,35,3.107866e-01,3.667186e-01,3.331816e-02,8.333887e-02,7.244293e-06,4.000000e-01,34,0,3,0,0,2,3,4.587832e-01,0,1,Left,Left,Left,Vertical,Target primed,Left,None,Main study,C
3,1,8,2,5.000000e-02,8.751733e-02,1.750347e+00,76,45,3.107591e-01,3.916811e-01,8.339954e-03,8.333494e-02,7.244293e-06,4.000000e-01,8,1,2,0,0,2,3,4.170970e-01,0,1,Left,Right,Left,Vertical,Foil primed,Left,None,Main study,C
3,1,8,2,5.000000e-02,8.751733e-02,1.750347e+00,76,35,3.189720e-01,2.666992e-01,1.333372e-01,8.335637e-02,7.244060e-06,4.000000e-01,134,1,3,1,1,2,3,4.504019e-01,0,0,Left,Right,Right,Vertical,Target primed,Right,None,Main study,C
3,1,8,2,5.000000e-02,8.751733e-02,1.750347e+00,76,50,3.189276e-01,3.667234e-01,3.331243e-02,8.333675e-02,6.942544e-06,4.000000e-01,34,0,3,0,0,2,3,3.920768e-01,0,1,Left,Left,Left,Vertical,Target primed,Left,None,Main study,C
3,1,8,2,5.000000e-02,8.751733e-02,1.750347e+00,76,35,3.189678e-01,2.666401e-01,1.333988e-01,8.333585e-02,6.942311e-06,4.000000e-01,134,1,2,0,0,2,3,4.337678e-01,1,0,Right,Right,Left,Vertical,Foil primed,Left,None,Main study,C
3,1,8,2,5.000000e-02,8.751733e-02,1.750347e+00,76,55,3.187848e-01,2.666742e-01,1.333544e-01,8.333042e-02,7.244293e-06,4.000000e-01,134,0,3,0,0,2,3,3.921167e-01,0,1,Left,Left,Left,Vertical,Target primed,Left,None,Main study,C
3,1,8,2,5.000000e-02,8.751733e-02,1.750347e+00,76,40,3.106658e-01,2.666642e-01,1.333741e-01,8.333706e-02,7.244293e-06,4.000000e-01,134,0,2,1,1,2,3,4.337395e-01,1,1,Right,Left,Right,Vertical,Foil primed,Right,None,Main study,C
3,1,8,2,5.000000e-02,8.751733e-02,1.750347e+00,76,55,3.106794e-01,3.917104e-01,8.326673e-03,8.330838e-02,7.244293e-06,4.000000e-01,8,1,2,0,0,2,3,4.421126e-01,1,0,Right,Right,Left,Vertical,Foil primed,Left,None,Main study,C
3,1,8,2,5.000000e-02,8.751733e-02,1.750347e+00,76,40,3.107679e-01,2.666917e-01,1.333466e-01,8.333645e-02,7.244293e-06,4.000000e-01,134,0,2,1,1,2,3,4.420692e-01,0,0,Left,Left,Right,Vertical,Foil primed,Right,None,Main study,C
3,1,8,2,5.000000e-02,8.751733e-02,1.750347e+00,76,50,3.189750e-01,3.666404e-01,3.335559e-02,8.332679e-02,7.847790e-06,4.000000e-01,34,0,2,1,1,2,3,8.421811e-01,1,1,Right,Left,Right,Vertical,Foil primed,Right,None,Main study,C
3,1,8,2,5.000000e-02,8.751733e-02,1.750347e+00,76,55,3.187233e-01,3.667014e-01,3.332269e-02,8.334913e-02,7.244293e-06,4.000000e-01,34,1,3,1,1,2,3,4.504185e-01,1,1,Right,Right,Right,Vertical,Target primed,Right,None,Main study,C
3,1,8,2,5.000000e-02,8.751733e-02,1.750347e+00,76,40,3.188923e-01,3.916530e-01,8.321843e-03,8.333675e-02,6.942311e-06,4.000000e-01,8,1,3,1,1,2,3,4.004183e-01,1,1,Right,Right,Right,Vertical,Target primed,Right,None,Main study,C
3,1,8,2,5.000000e-02,8.751733e-02,1.750347e+00,76,55,3.106151e-01,2.666476e-01,1.333502e-01,8.333555e-02,7.546041e-06,4.000000e-01,134,1,2,0,0,2,3,4.254572e-01,0,1,Left,Right,Left,Vertical,Foil primed,Left,None,Main study,C
3,1,8,2,5.000000e-02,8.751733e-02,1.750347e+00,76,50,3.106209e-01,3.666576e-01,3.332027e-02,8.336513e-02,7.244293e-06,4.000000e-01,34,0,2,1,1,2,3,4.338128e-01,0,0,Left,Left,Right,Vertical,Foil primed,Right,None,Main study,C
3,1,8,2,5.000000e-02,8.751733e-02,1.750347e+00,76,50,3.188642e-01,3.917705e-01,8.313391e-03,8.333404e-02,7.244293e-06,4.000000e-01,8,0,3,0,0,2,3,6.337858e-01,0,1,Left,Left,Left,Vertical,Target primed,Left,None,Main study,C
3,1,8,2,5.000000e-02,8.751733e-02,1.750347e+00,76,40,3.187963e-01,2.667234e-01,1.333590e-01,8.335668e-02,7.244293e-06,4.000000e-01,134,0,2,1,1,2,3,4.253986e-01,1,1,Right,Left,Right,Vertical,Foil primed,Right,None,Main study,C
3,1,8,2,5.000000e-02,8.751733e-02,1.750347e+00,76,55,3.106870e-01,3.666863e-01,3.334804e-02,8.332679e-02,7.244060e-06,4.000000e-01,34,1,2,0,0,2,3,4.421220e-01,0,1,Left,Right,Left,Vertical,Foil primed,Left,None,Main study,C
3,1,8,2,5.000000e-02,8.751733e-02,1.750347e+00,76,45,3.188316e-01,3.666972e-01,3.333778e-02,8.335819e-02,7.244060e-06,4.000000e-01,34,0,3,0,0,2,3,4.504284e-01,0,1,Left,Left,Left,Vertical,Target primed,Left,None,Main study,C
3,1,8,2,5.000000e-02,8.751733e-02,1.750347e+00,76,35,3.187945e-01,3.917901e-01,8.266606e-03,8.331804e-02,7.244293e-06,4.000000e-01,8,0,2,1,1,2,3,4.254203e-01,1,1,Right,Left,Right,Vertical,Foil primed,Right,None,Main study,C
3,1,8,2,5.000000e-02,8.751733e-02,1.750347e+00,76,55,3.107359e-01,3.916709e-01,8.358668e-03,8.331925e-02,7.244293e-06,4.000000e-01,8,0,3,0,0,2,3,3.587617e-01,0,1,Left,Left,Left,Vertical,Target primed,Left,None,Main study,C
3,1,8,2,5.000000e-02,8.751733e-02,1.750347e+00,76,35,3.189050e-01,2.666244e-01,1.333677e-01,8.331955e-02,7.244293e-06,4.000000e-01,134,1,2,0,0,2,3,4.337528e-01,0,1,Left,Right,Left,Vertical,Foil primed,Left,None,Main study,C
3,1,8,2,5.000000e-02,8.751733e-02,1.750347e+00,76,50,3.105653e-01,2.666500e-01,1.333529e-01,8.334098e-02,6.942311e-06,4.000000e-01,134,1,3,1,1,2,3,4.254596e-01,1,1,Right,Right,Right,Vertical,Target primed,Right,None,Main study,C
3,1,8,2,5.000000e-02,8.751733e-02,1.750347e+00,76,55,3.106701e-01,2.666693e-01,1.333246e-01,8.334853e-02,7.244293e-06,4.000000e-01,134,1,3,1,1,2,3,4.171151e-01,0,0,Left,Right,Right,Vertical,Target primed,Right,None,Main study,C
3,1,8,2,5.000000e-02,8.751733e-02,1.750347e+00,76,45,3.107120e-01,3.917022e-01,8.337841e-03,8.332438e-02,7.244293e-06,4.000000e-01,8,1,2,0,0,2,3,4.254330e-01,0,1,Left,Right,Left,Vertical,Foil primed,Left,None,Main study,C
3,1,8,2,5.000000e-02,8.751733e-02,1.750347e+00,76,35,3.188184e-01,2.667273e-01,1.332992e-01,8.334702e-02,6.942311e-06,4.000000e-01,134,1,2,0,0,2,3,4.671301e-01,0,1,Left,Right,Left,Vertical,Foil primed,Left,None,Main study,C
3,1,8,2,5.000000e-02,8.751733e-02,1.750347e+00,76,50,3.189889e-01,2.666787e-01,1.333608e-01,8.333675e-02,6.942544e-06,4.000000e-01,134,0,2,1,1,2,3,4.004334e-01,1,1,Right,Left,Right,Vertical,Foil primed,Right,None,Main study,C
3,1,8,2,5.000000e-02,8.751733e-02,1.750347e+00,76,50,3.106465e-01,2.667228e-01,1.333140e-01,8.334973e-02,7.244293e-06,4.000000e-01,134,0,3,0,0,2,3,4.504324e-01,1,0,Right,Left,Left,Vertical,Target primed,Left,None,Main study,C
3,1,8,2,5.000000e-02,8.751733e-02,1.750347e+00,76,50,3.106577e-01,3.917007e-01,8.335728e-03,8.332740e-02,7.546041e-06,4.000000e-01,8,1,3,1,1,2,3,1.233906e+00,1,1,Right,Right,Right,Vertical,Target primed,Right,None,Main study,C
3,1,8,2,5.000000e-02,8.751733e-02,1.750347e+00,76,35,3.184746e-01,3.667231e-01,3.330729e-02,8.336784e-02,7.244293e-06,4.000000e-01,34,0,3,0,0,2,3,4.087489e-01,0,1,Left,Left,Left,Vertical,Target primed,Left,None,Main study,C
3,1,8,2,5.000000e-02,8.751733e-02,1.750347e+00,76,45,3.188606e-01,2.666555e-01,1.334064e-01,8.328152e-02,7.244293e-06,4.000000e-01,134,0,3,0,0,2,3,4.337549e-01,0,1,Left,Left,Left,Vertical,Target primed,Left,None,Main study,C
3,1,8,2,5.000000e-02,8.751733e-02,1.750347e+00,76,35,3.107670e-01,2.666612e-01,1.333593e-01,8.333615e-02,6.942311e-06,4.000000e-01,134,0,2,1,1,2,3,4.254490e-01,1,1,Right,Left,Right,Vertical,Foil primed,Right,None,Main study,C
3,1,8,2,5.000000e-02,8.751733e-02,1.750347e+00,76,45,3.189451e-01,2.667176e-01,1.333496e-01,8.333283e-02,6.942311e-06,4.000000e-01,134,0,3,0,0,2,3,4.421018e-01,1,0,Right,Left,Left,Vertical,Target primed,Left,None,Main study,C
3,1,8,2,5.000000e-02,8.751733e-02,1.750347e+00,76,40,3.108068e-01,3.666344e-01,3.335227e-02,8.332981e-02,7.244293e-06,4.000000e-01,34,1,2,0,0,2,3,4.254629e-01,0,1,Left,Right,Left,Vertical,Foil primed,Left,None,Main study,C
3,1,9,2,5.000000e-02,8.751733e-02,1.750347e+00,76,50,3.184103e-01,3.917201e-01,8.344783e-03,8.333947e-02,7.546274e-06,4.000000e-01,8,0,3,0,0,2,3,3.667757e-01,0,1,Left,Left,Left,Vertical,Target primed,Left,None,Main study,C
3,1,9,2,5.000000e-02,8.751733e-02,1.750347e+00,76,55,3.107661e-01,3.916965e-01,8.375270e-03,8.330053e-02,7.244060e-06,4.000000e-01,8,1,3,1,1,2,3,3.421068e-01,1,1,Right,Right,Right,Vertical,Target primed,Right,None,Main study,C
3,1,9,2,5.000000e-02,8.751733e-02,1.750347e+00,76,55,3.107208e-01,3.916552e-01,8.333313e-03,8.339139e-02,9.055249e-06,4.000000e-01,8,1,3,1,1,2,3,4.087398e-01,1,1,Right,Right,Right,Vertical,Target primed,Right,None,Main study,C
3,1,9,2,5.000000e-02,8.751733e-02,1.750347e+00,76,40,3.187752e-01,3.917418e-01,8.308260e-03,8.333766e-02,7.244293e-06,4.000000e-01,8,1,2,0,0,2,3,3.421536e-01,0,1,Left,Right,Left,Vertical,Foil primed,Left,None,Main study,C
3,1,9,2,5.000000e-02,8.751733e-02,1.750347e+00,76,55,3.107896e-01,3.666721e-01,3.332329e-02,8.333857e-02,7.546041e-06,4.000000e-01,34,0,2,1,1,2,3,4.671500e-01,1,1,Right,Left,Right,Vertical,Foil primed,Right,None,Main study,C
3,1,9,2,5.000000e-02,8.751733e-02,1.750347e+00,76,55,3.188066e-01,3.666785e-01,3.336102e-02,8.326461e-02,7.244060e-06,4.000000e-01,34,1,2,0,0,2,3,5.921654e-01,1,0,Right,Right,Left,Vertical,Foil primed,Left,None,Main study,C
3,1,9,2,5.000000e-02,8.751733e-02,1.750347e+00,76,45,3.189584e-01,2.666896e-01,1.333466e-01,8.329842e-02,7.546041e-06,4.000000e-01,134,0,3,0,0,2,3,4.837713e-01,1,0,Right,Left,Left,Vertical,Target primed,Left,None,Main study,C
3,1,9,2,5.000000e-02,8.751733e-02,1.750347e+00,76,50,3.188470e-01,3.916715e-01,8.367120e-03,8.334340e-02,7.546041e-06,4.000000e-01,8,0,2,1,1,2,3,4.837508e-01,1,1,Right,Left,Right,Vertical,Foil primed,Right,None,Main study,C
3,1,9,2,5.000000e-02,8.751733e-02,1.750347e+00,76,35,3.188573e-01,3.667584e-01,3.329582e-02,8.334219e-02,7.244293e-06,4.000000e-01,34,0,3,0,0,2,3,7.087681e-01,1,0,Right,Left,Left,Vertical,Target primed,Left,None,Main study,C
3,1,9,2,5.000000e-02,8.751733e-02,1.750347e+00,76,45,3.188199e-01,3.666359e-01,3.337068e-02,8.338203e-02,1.056469e-05,4.000000e-01,34,1,2,0,0,2,3,4.753991e-01,0,1,Left,Right,Left,Vertical,Foil primed,Left,None,Main study,C
3,1,9,2,5.000000e-02,8.751733e-02,1.750347e+00,76,45,3.107552e-01,3.667035e-01,3.333386e-02,8.333826e-02,6.942311e-06,4.000000e-01,34,1,2,0,0,2,3,4.587325e-01,1,0,Right,Right,Left,Vertical,Foil primed,Left,None,Main study,C
3,1,9,2,5.000000e-02,8.751733e-02,1.750347e+00,76,55,3.187085e-01,3.666975e-01,3.334140e-02,8.337720e-02,9.055482e-06,4.000000e-01,34,0,3,0,0,2,3,7.504135e-01,0,1,Left,Left,Left,Vertical,Target primed,Left,None,Main study,C
3,1,9,2,5.000000e-02,8.751733e-02,1.750347e+00,76,45,3.187803e-01,2.667031e-01,1.333448e-01,8.333615e-02,7.244293e-06,4.000000e-01,134,0,2,1,1,2,3,5.587609e-01,0,0,Left,Left,Right,Vertical,Foil primed,Right,None,Main study,C
3,1,9,2,5.000000e-02,8.751733e-02,1.750347e+00,76,35,3.188724e-01,3.666679e-01,3.333899e-02,8.336060e-02,1.720525e-05,4.000000e-01,34,1,2,0,0,2,3,8.421189e-01,0,1,Left,Right,Left,Vertical,Foil primed,Left,None,Main study,C
3,1,9,2,5.000000e-02,8.751733e-02,1.750347e+00,76,45,3.187728e-01,2.666706e-01,1.332980e-01,8.336513e-02,6.942311e-06,4.000000e-01,134,0,2,1,1,2,3,4.004578e-01,1,1,Right,Left,Right,Vertical,Foil primed,Right,None,Main study,C
3,1,9,2,5.000000e-02,8.751733e-02,1.750347e+00,76,45,3.107805e-01,3.666981e-01,3.333899e-02,8.335819e-02,7.244293e-06,4.000000e-01,34,0,3,0,0,2,3,4.420864e-01,0,1,Left,Left,Left,Vertical,Target primed,Left,None,Main study,C
3,1,9,2,5.000000e-02,8.751733e-02,1.750347e+00,76,55,3.189427e-01,2.666684e-01,1.333351e-01,8.336211e-02,7.244293e-06,4.000000e-01,134,0,3,0,0,2,3,5.004458e-01,1,0,Right,Left,Left,Vertical,Target primed,Left,None,Main study,C
3,1,9,2,5.000000e-02,8.751733e-02,1.750347e+00,76,50,3.106852e-01,2.666473e-01,1.333475e-01,8.333887e-02,1.629977e-05,4.000000e-01,134,1,2,0,0,2,3,1.025540e+00,0,1,Left,Right,Left,Vertical,Foil primed,Left,None,Main study,C
3,1,9,2,5.000000e-02,8.751733e-02,1.750347e+00,76,50,3.185407e-01,3.667400e-01,3.333959e-02,8.332830e-02,7.244293e-06,4.000000e-01,34,0,2,1,1,2,3,3.920835e-01,1,1,Right,Left,Right,Vertical,Foil primed,Right,None,Main study,C
3,1,9,2,5.000000e-02,8.751733e-02,1.750347e+00,76,55,3.106308e-01,2.666992e-01,1.333484e-01,8.333645e-02,7.244060e-06,4.000000e-01,134,0,2,1,1,2,3,5.671609e-01,1,1,Right,Left,Right,Vertical,Foil primed,Right,None,Main study,C
3,1,9,2,5.000000e-02,8.751733e-02,1.750347e+00,76,55,3.186626e-01,2.667164e-01,1.333641e-01,8.331049e-02,7.546274e-06,4.000000e-01,134,1,3,1,1,2,3,7.838026e-01,1,1,Right,Right,Right,Vertical,Target primed,Right,None,Main study,C
