Subject,Trial,Block,Block_type,Foil_contrast,Target_contrast,Target_to_foil_contrast,Max_illuminance,Angle,Fixation_time,Placeholder_time,Prime_time,Target_time,Mask_time,Feedback_time,Prime_duration,Prime_rotation,Prime_type,Target_rotation,Correct_answer,Choice_rotation,Choice_display,RT,Choice,Accuracy,Choice_label,Prime_rotation_label,Target_rotation_label,Choice_rotation_label,Prime_type_label,Correct_answer_label,Onscreen_choices_labels,Block_type_label,Experiment
2,1,1,-2,5.000000e-02,2.500000e-01,5,76,55,1.759751e-02,4.000187e-01,1.000076e-01,2.831198e-01,9.357231e-06,4.000000e-01,100,2,1,1,1,2,3,4.879537e-01,1,1,Right,Vertical,Right,Vertical,Neither,Right,None,Guided practice,C
2,1,1,-2,5.000000e-02,2.500000e-01,5,76,40,1.159172e-02,3.999311e-01,1.000164e-01,2.834135e-01,9.357231e-06,4.000000e-01,100,2,1,1,1,2,3,4.908161e-01,1,1,Right,Vertical,Right,Vertical,Neither,Right,None,Guided practice,C
2,1,1,-2,5.000000e-02,2.500000e-01,5,76,45,1.034782e-02,4.000811e-01,9.994905e-02,2.833888e-01,7.244293e-06,4.000000e-01,100,2,1,0,0,2,3,3.170879e-01,0,1,Left,Vertical,Left,Vertical,Neither,Left,None,Guided practice,C
2,1,1,-2,5.000000e-02,2.500000e-01,5,76,50,1.849188e-02,4.000760e-01,1.000088e-01,2.833719e-01,7.244060e-06,4.000000e-01,100,2,1,0,0,2,3,3.587240e-01,0,1,Left,Vertical,Left,Vertical,Neither,Left,None,Guided practice,C
2,1,1,-2,5.000000e-02,2.500000e-01,5,76,50,1.056304e-02,4.000419e-01,9.999312e-02,2.833640e-01,7.244293e-06,4.000000e-01,100,2,1,0,0,2,3,3.337823e-01,0,1,Left,Vertical,Left,Vertical,Neither,Left,None,Guided practice,C
2,1,2,-1,5.000000e-02,2.500000e-01,5,76,55,3.145602e-01,3.000361e-01,1.000070e-01,8.306238e-02,8.753501e-06,4.000000e-01,100,2,1,0,0,2,3,4.587838e-01,0,1,Left,Vertical,Left,Vertical,Neither,Left,None,Exclusion practice,C
2,1,2,-1,5.000000e-02,2.500000e-01,5,76,40,3.186647e-01,3.000234e-01,9.999372e-02,8.336633e-02,7.546041e-06,4.000000e-01,100,2,1,1,1,2,3,4.004204e-01,1,1,Right,Vertical,Right,Vertical,Neither,Right,None,Exclusion practice,C
2,1,2,-1,5.000000e-02,2.500000e-01,5,76,35,3.108337e-01,3.000165e-01,1.000067e-01,8.335305e-02,7.244293e-06,4.000000e-01,100,2,1,1,1,2,3,3.920877e-01,1,1,Right,Vertical,Right,Vertical,Neither,Right,None,Exclusion practice,C
2,1,2,-1,5.000000e-02,2.500000e-01,5,76,40,3.108035e-01,3.000889e-01,9.990558e-02,8.333766e-02,7.244293e-06,4.000000e-01,100,2,1,0,0,2,3,3.838129e-01,0,1,Left,Vertical,Left,Vertical,Neither,Left,None,Exclusion practice,C
2,1,2,-1,5.000000e-02,2.500000e-01,5,76,45,3.108503e-01,3.000032e-01,1.000224e-01,8.331653e-02,7.244293e-06,4.000000e-01,100,2,1,0,0,2,3,3.421032e-01,0,1,Left,Vertical,Left,Vertical,Neither,Left,None,Exclusion practice,C
2,1,2,-1,5.000000e-02,2.500000e-01,5,76,35,3.105318e-01,3.000443e-01,1.000453e-01,8.330265e-02,7.546041e-06,4.000000e-01,100,2,1,0,0,2,3,3.504525e-01,0,1,Left,Vertical,Left,Vertical,Neither,Left,None,Exclusion practice,C
2,1,2,-1,5.000000e-02,2.500000e-01,5,76,35,3.107144e-01,3.000376e-01,1.000079e-01,8.333977e-02,7.546041e-06,4.000000e-01,100,2,1,1,1,2,3,3.421117e-01,1,1,Right,Vertical,Right,Vertical,Neither,Right,None,Exclusion practice,C
2,1,2,-1,5.000000e-02,2.500000e-01,5,76,55,3.189928e-01,2.999380e-01,1.000127e-01,8.333555e-02,7.244293e-06,4.000000e-01,100,2,1,1,1,2,3,3.421262e-01,1,1,Right,Vertical,Right,Vertical,Neither,Right,None,Exclusion practice,C
2,1,2,-1,5.000000e-02,2.500000e-01,5,76,35,3.107990e-01,3.000053e-01,1.000007e-01,8.335215e-02,6.942311e-06,4.000000e-01,100,2,1,0,0,2,3,3.671155e-01,0,1,Left,Vertical,Left,Vertical,Neither,Left,None,Exclusion practice,C
2,1,2,-1,5.000000e-02,2.500000e-01,5,76,45,3.189358e-01,3.000261e-01,1.000127e-01,8.332830e-02,7.546274e-06,4.000000e-01,100,2,1,1,1,2,3,3.337636e-01,1,1,Right,Vertical,Right,Vertical,Neither,Right,None,Exclusion practice,C
2,1,3,0,5.000000e-02,1.000000e-01,2,76,55,3.124679e-01,3.000008e-01,1.000351e-01,8.334279e-02,7.546041e-06,4.000000e-01,100,2,1,0,0,2,3,4.337636e-01,0,1,Left,Vertical,Left,Vertical,Neither,Left,None,Final training,C
2,1,3,0,5.000000e-02,1.000000e-01,2,76,55,3.107766e-01,2.999950e-01,1.000423e-01,8.334189e-02,7.244293e-06,4.000000e-01,100,2,1,0,0,2,3,3.170843e-01,0,1,Left,Vertical,Left,Vertical,Neither,Left,None,Final training,C
2,1,3,0,5.000000e-02,1.000000e-01,2,76,45,3.107772e-01,3.000337e-01,1.000242e-01,8.334641e-02,7.244293e-06,4.000000e-01,100,2,1,1,1,2,3,3.253958e-01,1,1,Right,Vertical,Right,Vertical,Neither,Right,None,Final training,C
2,1,3,0,5.000000e-02,1.000000e-01,2,76,35,3.107694e-01,3.000243e-01,1.000085e-01,8.334158e-02,7.244293e-06,4.000000e-01,100,2,1,0,0,2,3,3.837698e-01,0,1,Left,Vertical,Left,Vertical,Neither,Left,None,Final training,C
2,1,3,0,5.000000e-02,1.000000e-01,2,76,50,3.108343e-01,3.000050e-01,9.998859e-02,8.342308e-02,9.357231e-06,4.000000e-01,100,2,1,0,0,2,3,3.420202e-01,0,1,Left,Vertical,Left,Vertical,Neither,Left,None,Final training,C
2,1,3,0,5.000000e-02,1.000000e-01,2,76,50,3.106879e-01,3.000249e-01,1.000441e-01,8.333977e-02,7.244293e-06,4.000000e-01,100,2,1,0,0,2,3,3.254215e-01,0,1,Left,Vertical,Left,Vertical,Neither,Left,None,Final training,C
2,1,3,0,5.000000e-02,1.000000e-01,2,76,55,3.106891e-01,3.000240e-01,9.998678e-02,8.335728e-02,7.244293e-06,4.000000e-01,100,2,1,0,0,2,3,3.421002e-01,0,1,Left,Vertical,Left,Vertical,Neither,Left,None,Final training,C
2,1,3,0,5.000000e-02,1.000000e-01,2,76,45,3.109441e-01,2.999960e-01,1.000239e-01,8.332800e-02,7.848023e-06,4.000000e-01,100,2,1,0,0,2,3,3.588206e-01,0,1,Left,Vertical,Left,Vertical,Neither,Left,None,Final training,C
2,1,3,0,5.000000e-02,1.000000e-01,2,76,50,3.188663e-01,3.000050e-01,1.000698e-01,8.329872e-02,7.244293e-06,4.000000e-01,100,2,1,0,0,2,3,3.671424e-01,0,1,Left,Vertical,Left,Vertical,Neither,Left,None,Final training,C
2,1,3,0,5.000000e-02,1.000000e-01,2,76,50,3.188814e-01,2.999519e-01,1.000043e-01,8.335547e-02,7.244293e-06,4.000000e-01,100,2,1,1,1,2,3,3.754129e-01,1,1,Right,Vertical,Right,Vertical,Neither,Right,None,Final training,C
2,1,3,0,5.000000e-02,1.000000e-01,2,76,40,3.107664e-01,3.000615e-01,1.000149e-01,8.334853e-02,7.244293e-06,4.000000e-01,100,2,1,1,1,2,3,3.421047e-01,1,1,Right,Vertical,Right,Vertical,Neither,Right,None,Final training,C
2,1,3,0,5.000000e-02,1.000000e-01,2,76,50,3.108062e-01,2.999878e-01,1.000085e-01,8.336966e-02,7.244293e-06,4.000000e-01,100,2,1,1,1,2,3,3.254034e-01,1,1,Right,Vertical,Right,Vertical,Neither,Right,None,Final training,C
2,1,3,0,5.000000e-02,1.000000e-01,2,76,35,3.105430e-01,3.000829e-01,9.998436e-02,8.333977e-02,7.244060e-06,4.000000e-01,100,2,1,1,1,2,3,3.337243e-01,1,1,Right,Vertical,Right,Vertical,Neither,Right,None,Final training,C
2,1,3,0,5.000000e-02,1.000000e-01,2,76,55,3.106879e-01,3.000319e-01,9.998436e-02,8.335788e-02,7.244293e-06,4.000000e-01,100,2,1,1,1,2,3,3.337424e-01,1,1,Right,Vertical,Right,Vertical,Neither,Right,None,Final training,C
2,1,3,0,5.000000e-02,1.000000e-01,2,76,35,3.190215e-01,3.000068e-01,1.000245e-01,8.331291e-02,7.546041e-06,4.000000e-01,100,2,1,0,0,2,3,3.837562e-01,0,1,Left,Vertical,Left,Vertical,Neither,Left,None,Final training,C
2,1,3,0,5.000000e-02,1.000000e-01,2,76,35,3.107362e-01,3.000443e-01,9.995026e-02,8.346745e-02,9.055249e-06,4.000000e-01,100,2,1,1,1,2,3,3.587149e-01,1,1,Right,Vertical,Right,Vertical,Neither,Right,None,Final training,C
2,1,3,0,5.000000e-02,1.000000e-01,2,76,35,3.106830e-01,3.000403e-01,1.000001e-01,8.332528e-02,7.244293e-06,4.000000e-01,100,2,1,1,1,2,3,3.587541e-01,1,1,Right,Vertical,Right,Vertical,Neither,Right,None,Final training,C
2,1,3,0,5.000000e-02,1.000000e-01,2,76,45,3.108916e-01,2.998976e-01,1.000976e-01,8.327337e-02,7.244293e-06,4.000000e-01,100,2,1,1,1,2,3,3.254109e-01,1,1,Right,Vertical,Right,Vertical,Neither,Right,None,Final training,C
2,1,3,0,5.000000e-02,1.000000e-01,2,76,35,3.159620e-01,3.000313e-01,1.000266e-01,8.334490e-02,7.244293e-06,4.000000e-01,100,2,1,0,0,2,3,3.670675e-01,0,1,Left,Vertical,Left,Vertical,Neither,Left,None,Final training,C
2,1,3,0,5.000000e-02,1.000000e-01,2,76,35,3.108228e-01,2.999938e-01,1.000106e-01,8.333917e-02,7.244293e-06,4.000000e-01,100,2,1,0,0,2,3,3.587910e-01,0,1,Left,Vertical,Left,Vertical,Neither,Left,None,Final training,C
2,1,3,0,5.000000e-02,7.500000e-02,1.500000e+00,76,40,3.108011e-01,3.000110e-01,1.000266e-01,8.336694e-02,7.244293e-06,4.000000e-01,100,2,1,1,1,2,3,7.170770e-01,1,1,Right,Vertical,Right,Vertical,Neither,Right,None,Final training,C
2,1,3,0,5.000000e-02,7.500000e-02,1.500000e+00,76,45,3.187091e-01,2.999893e-01,1.000462e-01,8.333796e-02,7.244293e-06,4.000000e-01,100,2,1,0,0,2,3,5.254210e-01,0,1,Left,Vertical,Left,Vertical,Neither,Left,None,Final training,C
2,1,3,0,5.000000e-02,7.500000e-02,1.500000e+00,76,40,3.189162e-01,3.000612e-01,9.998648e-02,8.333374e-02,7.546041e-06,4.000000e-01,100,2,1,1,1,2,3,3.087452e-01,1,1,Right,Vertical,Right,Vertical,Neither,Right,None,Final training,C
2,1,3,0,5.000000e-02,7.500000e-02,1.500000e+00,76,55,3.109236e-01,2.999833e-01,1.000124e-01,8.333525e-02,7.244293e-06,4.000000e-01,100,2,1,1,1,2,3,3.421630e-01,1,1,Right,Vertical,Right,Vertical,Neither,Right,None,Final training,C
2,1,3,0,5.000000e-02,7.500000e-02,1.500000e+00,76,55,3.108454e-01,3.000379e-01,1.000299e-01,8.333766e-02,7.244293e-06,4.000000e-01,100,2,1,0,0,2,3,4.004584e-01,0,1,Left,Vertical,Left,Vertical,Neither,Left,None,Final training,C
2,1,3,0,5.000000e-02,7.500000e-02,1.500000e+00,76,40,3.105330e-01,3.000101e-01,1.000209e-01,8.332559e-02,7.244293e-06,4.000000e-01,100,2,1,1,1,2,3,3.504290e-01,1,1,Right,Vertical,Right,Vertical,Neither,Right,None,Final training,C
2,1,3,0,5.000000e-02,7.500000e-02,1.500000e+00,76,45,3.107437e-01,3.000261e-01,1.000631e-01,8.330959e-02,7.546041e-06,4.000000e-01,100,2,1,0,0,2,3,4.254982e-01,0,1,Left,Vertical,Left,Vertical,Neither,Left,None,Final training,C
2,1,3,0,5.000000e-02,7.500000e-02,1.500000e+00,76,45,3.106719e-01,3.000587e-01,9.999553e-02,8.334611e-02,7.546041e-06,4.000000e-01,100,2,1,0,0,2,3,6.754883e-01,0,1,Left,Vertical,Left,Vertical,Neither,Left,None,Final training,C
2,1,3,0,5.000000e-02,7.500000e-02,1.500000e+00,76,50,3.186590e-01,3.000261e-01,9.999855e-02,8.333585e-02,7.244060e-06,4.000000e-01,100,2,1,0,0,2,3,3.504160e-01,0,1,Left,Vertical,Left,Vertical,Neither,Left,None,Final training,C
2,1,3,0,5.000000e-02,7.500000e-02,1.500000e+00,76,40,3.107060e-01,3.000120e-01,1.000245e-01,8.332196e-02,7.244293e-06,4.000000e-01,100,2,1,1,1,2,3,3.587584e-01,1,1,Right,Vertical,Right,Vertical,Neither,Right,None,Final training,C
2,1,3,0,5.000000e-02,7.500000e-02,1.500000e+00,76,45,3.107211e-01,3.000032e-01,1.000103e-01,8.334581e-02,7.244293e-06,4.000000e-01,100,2,1,0,0,2,3,3.420881e-01,0,1,Left,Vertical,Left,Vertical,Neither,Left,None,Final training,C
2,1,3,0,5.000000e-02,7.500000e-02,1.500000e+00,76,50,3.107455e-01,3.000292e-01,1.000155e-01,8.336513e-02,7.244293e-06,4.000000e-01,100,2,1,0,0,2,3,4.254321e-01,0,1,Left,Vertical,Left,Vertical,Neither,Left,None,Final training,C
2,1,3,0,5.000000e-02,7.500000e-02,1.500000e+00,76,40,3.107126e-01,3.000005e-01,1.000414e-01,8.330385e-02,7.244293e-06,4.000000e-01,100,2,1,0,0,2,3,3.421228e-01,0,1,Left,Vertical,Left,Vertical,Neither,Left,None,Final training,C
2,1,3,0,5.000000e-02,7.500000e-02,1.500000e+00,76,45,3.107383e-01,2.999950e-01,1.000631e-01,8.330597e-02,7.546274e-06,4.000000e-01,100,2,1,1,1,2,3,6.421064e-01,1,1,Right,Vertical,Right,Vertical,Neither,Right,None,Final training,C
2,1,3,0,5.000000e-02,7.500000e-02,1.500000e+00,76,55,3.188021e-01,3.000358e-01,9.993275e-02,8.338354e-02,6.942544e-06,4.000000e-01,100,2,1,0,0,2,3,3.920989e-01,0,1,Left,Vertical,Left,Vertical,Neither,Left,None,Final training,C
2,1,3,0,5.000000e-02,7.500000e-02,1.500000e+00,76,50,3.107703e-01,3.000509e-01,1.000423e-01,8.329601e-02,7.546041e-06,4.000000e-01,100,2,1,1,1,2,3,3.671382e-01,1,1,Right,Vertical,Right,Vertical,Neither,Right,None,Final training,C
2,1,3,0,5.000000e-02,7.500000e-02,1.500000e+00,76,45,3.107648e-01,3.000418e-01,1.000118e-01,8.330023e-02,7.244293e-06,4.000000e-01,100,2,1,0,0,2,3,7.838017e-01,0,1,Left,Vertical,Left,Vertical,Neither,Left,None,Final training,C
2,1,3,0,5.000000e-02,7.500000e-02,1.500000e+00,76,50,3.188334e-01,3.000074e-01,1.000523e-01,8.331442e-02,7.244293e-06,4.000000e-01,100,2,1,0,0,2,3,3.837607e-01,0,1,Left,Vertical,Left,Vertical,Neither,Left,None,Final training,C
2,1,3,0,5.000000e-02,7.500000e-02,1.500000e+00,76,55,3.189699e-01,3.000255e-01,9.999221e-02,8.334309e-02,7.244293e-06,4.000000e-01,100,2,1,0,0,2,3,5.254657e-01,0,1,Left,Vertical,Left,Vertical,Neither,Left,None,Final training,C
2,1,3,0,5.000000e-02,7.500000e-02,1.500000e+00,76,35,3.107793e-01,2.999398e-01,1.000339e-01,8.332981e-02,7.546041e-06,4.000000e-01,100,2,1,0,0,2,3,5.504469e-01,0,1,Left,Vertical,Left,Vertical,Neither,Left,None,Final training,C
2,1,3,0,5.000000e-02,6.250000e-02,1.250000e+00,76,45,3.188576e-01,2.999797e-01,1.000112e-01,8.335849e-02,7.546041e-06,4.000000e-01,100,2,1,1,1,2,3,5.754822e-01,0,0,Left,Vertical,Right,Vertical,Neither,Right,None,Final training,C
2,1,3,0,5.000000e-02,6.250000e-02,1.250000e+00,76,40,3.106770e-01,3.000328e-01,1.000046e-01,8.334611e-02,7.546041e-06,4.000000e-01,100,2,1,0,0,2,3,5.004250e-01,0,1,Left,Vertical,Left,Vertical,Neither,Left,None,Final training,C
2,1,3,0,5.000000e-02,6.250000e-02,1.250000e+00,76,55,3.106661e-01,3.000687e-01,1.000103e-01,8.332770e-02,7.244293e-06,4.000000e-01,100,2,1,0,0,2,3,5.337652e-01,0,1,Left,Vertical,Left,Vertical,Neither,Left,None,Final training,C
2,1,3,0,5.000000e-02,6.250000e-02,1.250000e+00,76,35,3.110872e-01,2.999748e-01,1.000465e-01,8.335456e-02,7.244293e-06,4.000000e-01,100,2,1,1,1,2,3,4.420480e-01,0,0,Left,Vertical,Right,Vertical,Neither,Right,None,Final training,C
2,1,3,0,5.000000e-02,6.250000e-02,1.250000e+00,76,40,3.106927e-01,3.000307e-01,9.999674e-02,8.336151e-02,7.546041e-06,4.000000e-01,100,2,1,1,1,2,3,4.921050e-01,0,0,Left,Vertical,Right,Vertical,Neither,Right,None,Final training,C
2,1,3,0,5.000000e-02,6.250000e-02,1.250000e+00,76,35,3.187719e-01,3.000358e-01,9.999825e-02,8.331532e-02,7.244060e-06,4.000000e-01,100,2,1,1,1,2,3,8.421518e-01,0,0,Left,Vertical,Right,Vertical,Neither,Right,None,Final training,C
2,1,3,0,5.000000e-02,6.250000e-02,1.250000e+00,76,55,3.187311e-01,3.000292e-01,1.000224e-01,8.334611e-02,7.546274e-06,4.000000e-01,100,2,1,1,1,2,3,4.170629e-01,1,1,Right,Vertical,Right,Vertical,Neither,Right,None,Final training,C
2,1,3,0,5.000000e-02,6.250000e-02,1.250000e+00,76,50,3.107585e-01,2.999721e-01,1.000010e-01,8.334098e-02,7.244060e-06,4.000000e-01,100,2,1,0,0,2,3,4.837680e-01,0,1,Left,Vertical,Left,Vertical,Neither,Left,None,Final training,C
2,1,3,0,5.000000e-02,6.250000e-02,1.250000e+00,76,55,3.107404e-01,2.999833e-01,9.998286e-02,8.340014e-02,7.244293e-06,4.000000e-01,100,2,1,0,0,2,3,6.087892e-01,0,1,Left,Vertical,Left,Vertical,Neither,Left,None,Final training,C
2,1,3,0,5.000000e-02,6.250000e-02,1.250000e+00,76,45,3.106447e-01,2.999890e-01,9.999372e-02,8.334913e-02,7.546041e-06,4.000000e-01,100,2,1,1,1,2,3,3.754500e-01,1,1,Right,Vertical,Right,Vertical,Neither,Right,None,Final training,C
2,1,3,0,5.000000e-02,6.250000e-02,1.250000e+00,76,45,3.108928e-01,3.000255e-01,9.999131e-02,8.332770e-02,7.244293e-06,4.000000e-01,100,2,1,0,0,2,3,1.325539e+00,0,1,Left,Vertical,Left,Vertical,Neither,Left,None,Final training,C
2,1,3,0,5.000000e-02,6.250000e-02,1.250000e+00,76,45,3.185204e-01,2.999778e-01,1.000468e-01,8.334943e-02,7.244293e-06,4.000000e-01,100,2,1,0,0,2,3,4.170680e-01,0,1,Left,Vertical,Left,Vertical,Neither,Left,None,Final training,C
2,1,3,0,5.000000e-02,6.250000e-02,1.250000e+00,76,50,3.107365e-01,2.999972e-01,9.998104e-02,8.335004e-02,7.546041e-06,4.000000e-01,100,2,1,1,1,2,3,9.171731e-01,0,0,Left,Vertical,Right,Vertical,Neither,Right,None,Final training,C
2,1,3,0,5.000000e-02,6.250000e-02,1.250000e+00,76,40,3.188193e-01,3.000123e-01,1.000121e-01,8.337479e-02,1.931796e-05,4.000000e-01,100,2,1,1,1,2,3,5.253899e-01,1,1,Right,Vertical,Right,Vertical,Neither,Right,None,Final training,C
2,1,3,0,5.000000e-02,6.250000e-02,1.250000e+00,76,35,3.108617e-01,2.999996e-01,9.994814e-02,8.336483e-02,7.244293e-06,4.000000e-01,100,2,1,0,0,2,3,5.921443e-01,0,1,Left,Vertical,Left,Vertical,Neither,Left,None,Final training,C
2,1,3,0,5.000000e-02,6.250000e-02,1.250000e+00,76,45,3.106677e-01,3.000204e-01,1.000139e-01,8.333645e-02,8.149771e-06,4.000000e-01,100,2,1,0,0,2,3,9.921560e-01,0,1,Left,Vertical,Left,Vertical,Neither,Left,None,Final training,C
2,1,3,0,5.000000e-02,6.250000e-02,1.250000e+00,76,50,3.186991e-01,3.000267e-01,1.000106e-01,8.334460e-02,7.244293e-06,4.000000e-01,100,2,1,1,1,2,3,6.170820e-01,0,0,Left,Vertical,Right,Vertical,Neither,Right,None,Final training,C
2,1,3,0,5.000000e-02,6.250000e-02,1.250000e+00,76,40,3.189620e-01,2.999917e-01,1.000465e-01,8.332589e-02,7.244293e-06,4.000000e-01,100,2,1,1,1,2,3,1.600537e+00,0,0,Left,Vertical,Right,Vertical,Neither,Right,None,Final training,C
2,1,3,0,5.000000e-02,6.250000e-02,1.250000e+00,76,50,3.182572e-01,2.999715e-01,1.000484e-01,8.332679e-02,7.546041e-06,4.000000e-01,100,2,1,0,0,2,3,1.067169e+00,1,0,Right,Vertical,Left,Vertical,Neither,Left,None,Final training,C
2,1,3,0,5.000000e-02,6.250000e-02,1.250000e+00,76,55,3.184993e-01,3.000759e-01,1.000127e-01,8.337177e-02,7.244293e-06,4.000000e-01,100,2,1,1,1,2,3,5.670767e-01,1,1,Right,Vertical,Right,Vertical,Neither,Right,None,Final training,C
2,1,3,0,5.000000e-02,5.625000e-02,1.125000e+00,76,55,3.188331e-01,3.000654e-01,1.000094e-01,8.333706e-02,7.244293e-06,4.000000e-01,100,2,1,0,0,2,3,6.588029e-01,0,1,Left,Vertical,Left,Vertical,Neither,Left,None,Final training,C
2,1,3,0,5.000000e-02,5.625000e-02,1.125000e+00,76,50,3.189011e-01,3.000258e-01,1.001247e-01,8.322296e-02,7.244293e-06,4.000000e-01,100,2,1,1,1,2,3,7.837924e-01,0,0,Left,Vertical,Right,Vertical,Neither,Right,None,Final training,C
2,1,3,0,5.000000e-02,5.625000e-02,1.125000e+00,76,35,3.188618e-01,3.000560e-01,9.996988e-02,8.339743e-02,7.546041e-06,4.000000e-01,100,2,1,1,1,2,3,5.837657e-01,0,0,Left,Vertical,Right,Vertical,Neither,Right,None,Final training,C
2,1,3,0,5.000000e-02,5.625000e-02,1.125000e+00,76,50,3.106707e-01,3.000243e-01,9.999885e-02,8.334038e-02,7.546041e-06,4.000000e-01,100,2,1,0,0,2,3,7.838011e-01,1,0,Right,Vertical,Left,Vertical,Neither,Left,None,Final training,C
2,1,3,0,5.000000e-02,5.625000e-02,1.125000e+00,76,55,3.168159e-01,2.999938e-01,1.000004e-01,8.333917e-02,7.847790e-06,4.000000e-01,100,2,1,1,1,2,3,3.754507e-01,1,1,Right,Vertical,Right,Vertical,Neither,Right,None,Final training,C
2,1,3,0,5.000000e-02,5.625000e-02,1.125000e+00,76,55,3.106381e-01,3.000394e-01,9.994241e-02,8.337539e-02,7.546041e-06,4.000000e-01,100,2,1,0,0,2,3,9.421513e-01,1,0,Right,Vertical,Left,Vertical,Neither,Left,None,Final training,C
2,1,3,0,5.000000e-02,5.625000e-02,1.125000e+00,76,55,3.188211e-01,2.999392e-01,1.000444e-01,8.332528e-02,7.546041e-06,4.000000e-01,100,2,1,1,1,2,3,5.004787e-01,1,1,Right,Vertical,Right,Vertical,Neither,Right,None,Final training,C
2,1,3,0,5.000000e-02,5.625000e-02,1.125000e+00,76,45,3.107449e-01,3.000612e-01,9.999734e-02,8.331442e-02,7.546274e-06,4.000000e-01,100,2,1,0,0,2,3,5.921225e-01,0,1,Left,Vertical,Left,Vertical,Neither,Left,None,Final training,C
2,1,3,0,5.000000e-02,5.625000e-02,1.125000e+00,76,40,3.189023e-01,3.000639e-01,1.000136e-01,8.335486e-02,7.546041e-06,4.000000e-01,100,2,1,1,1,2,3,4.170638e-01,0,0,Left,Vertical,Right,Vertical,Neither,Right,None,Final training,C
2,1,3,0,5.000000e-02,5.625000e-02,1.125000e+00,76,50,3.106607e-01,3.000186e-01,1.000109e-01,8.336754e-02,7.244060e-06,4.000000e-01,100,2,1,1,1,2,3,4.920709e-01,1,1,Right,Vertical,Right,Vertical,Neither,Right,None,Final training,C
2,1,3,0,5.000000e-02,5.625000e-02,1.125000e+00,76,40,3.187450e-01,3.000240e-01,1.000136e-01,8.333796e-02,7.546041e-06,4.000000e-01,100,2,1,1,1,2,3,6.004945e-01,0,0,Left,Vertical,Right,Vertical,Neither,Right,None,Final training,C
2,1,3,0,5.000000e-02,5.625000e-02,1.125000e+00,76,45,3.187498e-01,2.999981e-01,1.000631e-01,8.331683e-02,7.244293e-06,4.000000e-01,100,2,1,0,0,2,3,4.254122e-01,0,1,Left,Vertical,Left,Vertical,Neither,Left,None,Final training,C
2,1,3,0,5.000000e-02,5.625000e-02,1.125000e+00,76,35,3.108222e-01,3.000331e-01,1.000429e-01,8.332770e-02,7.244293e-06,4.000000e-01,100,2,1,1,1,2,3,4.587569e-01,0,0,Left,Vertical,Right,Vertical,Neither,Right,None,Final training,C
2,1,3,0,5.000000e-02,5.625000e-02,1.125000e+00,76,40,3.107576e-01,3.000258e-01,9.999976e-02,8.331925e-02,7.244060e-06,4.000000e-01,100,2,1,0,0,2,3,6.088362e-01,0,1,Left,Vertical,Left,Vertical,Neither,Left,None,Final training,C
2,1,3,0,5.000000e-02,5.625000e-02,1.125000e+00,76,40,3.189240e-01,2.999860e-01,1.000484e-01,8.334853e-02,6.942311e-06,4.000000e-01,100,2,1,0,0,2,3,4.170635e-01,1,0,Right,Vertical,Left,Vertical,Neither,Left,None,Final training,C
2,1,3,0,5.000000e-02,5.625000e-02,1.125000e+00,76,55,3.107033e-01,3.000237e-01,1.000127e-01,8.336241e-02,7.244293e-06,4.000000e-01,100,2,1,1,1,2,3,3.837589e-01,1,1,Right,Vertical,Right,Vertical,Neither,Right,None,Final training,C
2,1,3,0,5.000000e-02,5.625000e-02,1.125000e+00,76,55,3.189469e-01,3.000086e-01,1.000109e-01,8.332559e-02,7.244293e-06,4.000000e-01,100,2,1,1,1,2,3,6.088049e-01,1,1,Right,Vertical,Right,Vertical,Neither,Right,None,Final training,C
2,1,3,0,5.000000e-02,5.625000e-02,1.125000e+00,76,55,3.187613e-01,3.000192e-01,1.000571e-01,8.331713e-02,7.244293e-06,4.000000e-01,100,2,1,1,1,2,3,5.921144e-01,1,1,Right,Vertical,Right,Vertical,Neither,Right,None,Final training,C
2,1,3,0,5.000000e-02,5.625000e-02,1.125000e+00,76,55,3.106906e-01,3.000243e-01,1.000094e-01,8.333826e-02,7.244293e-06,4.000000e-01,100,2,1,1,1,2,3,3.587934e-01,1,1,Right,Vertical,Right,Vertical,Neither,Right,None,Final training,C
2,1,3,0,5.000000e-02,5.625000e-02,1.125000e+00,76,55,3.107301e-01,3.000234e-01,9.999614e-02,8.333132e-02,7.244293e-06,4.000000e-01,100,2,1,0,0,2,3,5.754825e-01,1,0,Right,Vertical,Left,Vertical,Neither,Left,None,Final training,C
2,1,4,1,5.000000e-02,1.000000e-01,2.000000e+00,76,45,3.143966e-01,3.664566e-01,3.331273e-02,8.336332e-02,7.244293e-06,4.000000e-01,34,2,1,0,0,2,3,4.004089e-01,0,1,Left,Vertical,Left,Vertical,Neither,Left,None,Staircase calibration,C
2,1,4,1,5.000000e-02,1.000000e-01,2.000000e+00,76,35,3.152318e-01,3.667482e-01,3.332390e-02,8.329087e-02,7.244293e-06,4.000000e-01,34,2,1,0,0,2,3,4.171109e-01,0,1,Left,Vertical,Left,Vertical,Neither,Left,None,Staircase calibration,C
2,1,4,1,5.000000e-02,1.000000e-01,2.000000e+00,76,55,3.186243e-01,2.667128e-01,1.332844e-01,8.333675e-02,9.055482e-06,4.000000e-01,134,2,1,0,0,2,3,3.421026e-01,0,1,Left,Vertical,Left,Vertical,Neither,Left,None,Staircase calibration,C
2,1,4,1,5.000000e-02,1.000000e-01,2.000000e+00,76,40,3.189026e-01,2.666346e-01,1.333445e-01,8.333162e-02,7.244293e-06,4.000000e-01,134,2,1,1,1,2,3,3.421527e-01,1,1,Right,Vertical,Right,Vertical,Neither,Right,None,Staircase calibration,C
2,1,4,1,5.000000e-02,1.000000e-01,2.000000e+00,76,45,3.106332e-01,3.667005e-01,3.335982e-02,8.331532e-02,7.546041e-06,4.000000e-01,34,2,1,1,1,2,3,3.671572e-01,1,1,Right,Vertical,Right,Vertical,Neither,Right,None,Staircase calibration,C
2,1,4,1,5.000000e-02,1.000000e-01,2.000000e+00,76,55,3.189509e-01,3.917194e-01,8.344783e-03,8.333675e-02,7.244293e-06,4.000000e-01,8,2,1,1,1,2,3,4.253509e-01,1,1,Right,Vertical,Right,Vertical,Neither,Right,None,Staircase calibration,C
2,1,4,1,5.000000e-02,1.000000e-01,2.000000e+00,76,35,3.107371e-01,3.916253e-01,8.359272e-03,8.331110e-02,7.244060e-06,4.000000e-01,8,2,1,0,0,2,3,6.588292e-01,0,1,Left,Vertical,Left,Vertical,Neither,Left,None,Staircase calibration,C
2,1,4,1,5.000000e-02,1.000000e-01,2.000000e+00,76,35,3.186445e-01,3.916706e-01,8.334219e-03,8.337026e-02,7.244293e-06,4.000000e-01,8,2,1,0,0,2,3,4.171057e-01,0,1,Left,Vertical,Left,Vertical,Neither,Left,None,Staircase calibration,C
2,1,4,1,5.000000e-02,1.000000e-01,2.000000e+00,76,40,3.106858e-01,3.667086e-01,3.332993e-02,8.333736e-02,7.244293e-06,4.000000e-01,34,2,1,1,1,2,3,3.504199e-01,1,1,Right,Vertical,Right,Vertical,Neither,Right,None,Staircase calibration,C
2,1,4,1,5.000000e-02,1.000000e-01,2.000000e+00,76,40,3.104464e-01,3.917409e-01,8.337841e-03,8.332408e-02,7.546274e-06,4.000000e-01,8,2,1,0,0,2,3,3.754337e-01,0,1,Left,Vertical,Left,Vertical,Neither,Left,None,Staircase calibration,C
2,1,4,1,5.000000e-02,7.918896e-02,1.583779e+00,76,45,3.185980e-01,3.666290e-01,3.335951e-02,8.331381e-02,7.546041e-06,4.000000e-01,34,2,1,1,1,2,3,3.421340e-01,1,1,Right,Vertical,Right,Vertical,Neither,Right,None,Staircase calibration,C
2,1,4,1,5.000000e-02,7.918896e-02,1.583779e+00,76,45,3.107679e-01,3.666027e-01,3.336796e-02,8.335547e-02,9.055249e-06,4.000000e-01,34,2,1,0,0,2,3,3.587225e-01,0,1,Left,Vertical,Left,Vertical,Neither,Left,None,Staircase calibration,C
2,1,4,1,5.000000e-02,7.918896e-02,1.583779e+00,76,35,3.106846e-01,3.916428e-01,8.326371e-03,8.337841e-02,7.244293e-06,4.000000e-01,8,2,1,0,0,2,3,1.342166e+00,1,0,Right,Vertical,Left,Vertical,Neither,Left,None,Staircase calibration,C
2,1,4,1,5.000000e-02,7.918896e-02,1.583779e+00,76,35,3.185126e-01,2.666515e-01,1.333683e-01,8.333706e-02,7.244060e-06,4.000000e-01,134,2,1,1,1,2,3,5.170925e-01,1,1,Right,Vertical,Right,Vertical,Neither,Right,None,Staircase calibration,C
2,1,4,1,5.000000e-02,7.918896e-02,1.583779e+00,76,40,3.189219e-01,3.667092e-01,3.336887e-02,8.333675e-02,7.244293e-06,4.000000e-01,34,2,1,0,0,2,3,5.421175e-01,0,1,Left,Vertical,Left,Vertical,Neither,Left,None,Staircase calibration,C
2,1,4,1,5.000000e-02,7.918896e-02,1.583779e+00,76,50,3.106643e-01,2.666322e-01,1.336210e-01,8.306117e-02,7.848023e-06,4.000000e-01,134,2,1,0,0,2,3,4.004132e-01,0,1,Left,Vertical,Left,Vertical,Neither,Left,None,Staircase calibration,C
2,1,4,1,5.000000e-02,7.918896e-02,1.583779e+00,76,50,3.106619e-01,3.917095e-01,8.336332e-03,8.336513e-02,7.244293e-06,4.000000e-01,8,2,1,1,1,2,3,4.504242e-01,1,1,Right,Vertical,Right,Vertical,Neither,Right,None,Staircase calibration,C
2,1,4,1,5.000000e-02,7.918896e-02,1.583779e+00,76,35,3.105955e-01,3.916971e-01,8.401228e-03,8.327276e-02,7.244293e-06,4.000000e-01,8,2,1,0,0,2,3,3.671267e-01,0,1,Left,Vertical,Left,Vertical,Neither,Left,None,Staircase calibration,C
2,1,4,1,5.000000e-02,7.918896e-02,1.583779e+00,76,45,3.107247e-01,2.667481e-01,1.333122e-01,8.334641e-02,7.546041e-06,4.000000e-01,134,2,1,1,1,2,3,4.171018e-01,1,1,Right,Vertical,Right,Vertical,Neither,Right,None,Staircase calibration,C
2,1,4,1,5.000000e-02,7.918896e-02,1.583779e+00,76,50,3.107214e-01,3.917225e-01,8.327276e-03,8.333766e-02,7.244293e-06,4.000000e-01,8,2,1,0,0,2,3,1.258831e+00,0,1,Left,Vertical,Left,Vertical,Neither,Left,None,Staircase calibration,C
2,1,4,1,5.000000e-02,7.918896e-02,1.583779e+00,76,40,3.181166e-01,3.667059e-01,3.333748e-02,8.336784e-02,7.546041e-06,4.000000e-01,34,2,1,1,1,2,3,4.756252e-01,1,1,Right,Vertical,Right,Vertical,Neither,Right,None,Staircase calibration,C
2,1,4,1,5.000000e-02,7.918896e-02,1.583779e+00,76,40,3.189228e-01,3.667213e-01,3.332722e-02,8.334611e-02,7.244293e-06,4.000000e-01,34,2,1,0,0,2,3,5.754149e-01,0,1,Left,Vertical,Left,Vertical,Neither,Left,None,Staircase calibration,C
2,1,4,1,5.000000e-02,7.918896e-02,1.583779e+00,76,45,3.188401e-01,3.667153e-01,3.332873e-02,8.333706e-02,7.244293e-06,4.000000e-01,34,2,1,0,0,2,3,4.087489e-01,0,1,Left,Vertical,Left,Vertical,Neither,Left,None,Staircase calibration,C
2,1,4,1,5.000000e-02,7.918896e-02,1.583779e+00,76,45,3.189312e-01,3.916887e-01,8.326069e-03,8.332347e-02,7.546041e-06,4.000000e-01,8,2,1,0,0,2,3,4.004738e-01,0,1,Left,Vertical,Left,Vertical,Neither,Left,None,Staircase calibration,C
2,1,4,1,5.000000e-02,7.918896e-02,1.583779e+00,76,50,3.106613e-01,2.666878e-01,1.333786e-01,8.330898e-02,7.244060e-06,4.000000e-01,134,2,1,1,1,2,3,3.338698e-01,1,1,Right,Vertical,Right,Vertical,Neither,Right,None,Staircase calibration,C
2,1,4,1,5.000000e-02,7.918896e-02,1.583779e+00,76,40,3.106960e-01,3.666990e-01,3.334955e-02,8.334279e-02,7.546041e-06,4.000000e-01,34,2,1,1,1,2,3,3.754440e-01,1,1,Right,Vertical,Right,Vertical,Neither,Right,None,Staircase calibration,C
2,1,4,1,5.000000e-02,7.918896e-02,1.583779e+00,76,50,3.187094e-01,3.666634e-01,3.334110e-02,8.336905e-02,7.244060e-06,4.000000e-01,34,2,1,1,1,2,3,3.754039e-01,1,1,Right,Vertical,Right,Vertical,Neither,Right,None,Staircase calibration,C
2,1,4,1,5.000000e-02,7.918896e-02,1.583779e+00,76,40,3.103420e-01,2.667107e-01,1.333276e-01,8.332559e-02,7.546041e-06,4.000000e-01,134,2,1,1,1,2,3,4.588007e-01,1,1,Right,Vertical,Right,Vertical,Neither,Right,None,Staircase calibration,C
2,1,4,1,5.000000e-02,7.918896e-02,1.583779e+00,76,35,3.189841e-01,3.666664e-01,3.333929e-02,8.333675e-02,7.244293e-06,4.000000e-01,34,2,1,1,1,2,3,3.754235e-01,1,1,Right,Vertical,Right,Vertical,Neither,Right,None,Staircase calibration,C
2,1,4,1,5.000000e-02,7.918896e-02,1.583779e+00,76,45,3.187779e-01,2.666983e-01,1.333397e-01,8.333826e-02,7.244293e-06,4.000000e-01,134,2,1,0,0,2,3,4.504843e-01,0,1,Left,Vertical,Left,Vertical,Neither,Left,None,Staircase calibration,C
2,1,4,1,5.000000e-02,6.853828e-02,1.370766e+00,76,45,3.106151e-01,2.666896e-01,1.333508e-01,8.330506e-02,7.546041e-06,4.000000e-01,134,2,1,1,1,2,3,3.671143e-01,1,1,Right,Vertical,Right,Vertical,Neither,Right,None,Staircase calibration,C
2,1,4,1,5.000000e-02,6.853828e-02,1.370766e+00,76,35,3.106203e-01,2.667204e-01,1.333095e-01,8.334641e-02,7.546041e-06,4.000000e-01,134,2,1,1,1,2,3,4.921439e-01,1,1,Right,Vertical,Right,Vertical,Neither,Right,None,Staircase calibration,C
2,1,4,1,5.000000e-02,6.853828e-02,1.370766e+00,76,40,3.189162e-01,3.667539e-01,3.331484e-02,8.330385e-02,7.546274e-06,4.000000e-01,34,2,1,0,0,2,3,4.087410e-01,0,1,Left,Vertical,Left,Vertical,Neither,Left,None,Staircase calibration,C
2,1,4,1,5.000000e-02,6.853828e-02,1.370766e+00,76,50,3.188522e-01,3.917022e-01,8.319428e-03,8.337086e-02,7.244293e-06,4.000000e-01,8,2,1,1,1,2,3,7.338091e-01,1,1,Right,Vertical,Right,Vertical,Neither,Right,None,Staircase calibration,C
2,1,4,1,5.000000e-02,6.853828e-02,1.370766e+00,76,35,3.187082e-01,2.667062e-01,1.333614e-01,8.332136e-02,7.244293e-06,4.000000e-01,134,2,1,0,0,2,3,4.754302e-01,0,1,Left,Vertical,Left,Vertical,Neither,Left,None,Staircase calibration,C
2,1,4,1,5.000000e-02,6.853828e-02,1.370766e+00,76,55,3.188763e-01,3.916968e-01,8.337539e-03,8.330355e-02,7.546274e-06,4.000000e-01,8,2,1,1,1,2,3,3.671264e-01,1,1,Right,Vertical,Right,Vertical,Neither,Right,None,Staircase calibration,C
2,1,4,1,5.000000e-02,6.853828e-02,1.370766e+00,76,40,3.189300e-01,3.666667e-01,3.334261e-02,8.333404e-02,7.244293e-06,4.000000e-01,34,2,1,0,0,2,3,3.837613e-01,0,1,Left,Vertical,Left,Vertical,Neither,Left,None,Staircase calibration,C
2,1,4,1,5.000000e-02,6.853828e-02,1.370766e+00,76,50,3.189243e-01,2.666573e-01,1.333520e-01,8.333766e-02,7.244293e-06,4.000000e-01,134,2,1,0,0,2,3,8.004943e-01,0,1,Left,Vertical,Left,Vertical,Neither,Left,None,Staircase calibration,C
2,1,4,1,5.000000e-02,6.853828e-02,1.370766e+00,76,55,3.184564e-01,3.666996e-01,3.335529e-02,8.331985e-02,7.244293e-06,4.000000e-01,34,2,1,1,1,2,3,3.587554e-01,1,1,Right,Vertical,Right,Vertical,Neither,Right,None,Staircase calibration,C
2,1,4,1,5.000000e-02,6.853828e-02,1.370766e+00,76,45,3.107485e-01,3.666978e-01,3.333959e-02,8.333675e-02,6.942311e-06,4.000000e-01,34,2,1,1,1,2,3,9.421307e-01,0,0,Left,Vertical,Right,Vertical,Neither,Right,None,Staircase calibration,C
2,1,4,1,5.000000e-02,6.853828e-02,1.370766e+00,76,40,3.185364e-01,3.917312e-01,8.307053e-03,8.333615e-02,7.546041e-06,4.000000e-01,8,2,1,1,1,2,3,9.006833e-01,0,0,Left,Vertical,Right,Vertical,Neither,Right,None,Staircase calibration,C
2,1,4,1,5.000000e-02,6.853828e-02,1.370766e+00,76,50,3.187426e-01,3.667280e-01,3.329794e-02,8.335094e-02,7.244293e-06,4.000000e-01,34,2,1,0,0,2,3,7.921067e-01,0,1,Left,Vertical,Left,Vertical,Neither,Left,None,Staircase calibration,C
2,1,4,1,5.000000e-02,6.853828e-02,1.370766e+00,76,45,3.188054e-01,2.667717e-01,1.333131e-01,8.333766e-02,6.942311e-06,4.000000e-01,134,2,1,0,0,2,3,5.087665e-01,1,0,Right,Vertical,Left,Vertical,Neither,Left,None,Staircase calibration,C
2,1,4,1,5.000000e-02,6.853828e-02,1.370766e+00,76,45,3.189053e-01,3.666534e-01,3.335740e-02,8.338143e-02,7.546041e-06,4.000000e-01,34,2,1,1,1,2,3,4.336719e-01,1,1,Right,Vertical,Right,Vertical,Neither,Right,None,Staircase calibration,C
2,1,4,1,5.000000e-02,6.853828e-02,1.370766e+00,76,55,3.188310e-01,2.666926e-01,1.333128e-01,8.337177e-02,7.244293e-06,4.000000e-01,134,2,1,1,1,2,3,4.254517e-01,1,1,Right,Vertical,Right,Vertical,Neither,Right,None,Staircase calibration,C
2,1,4,1,5.000000e-02,6.853828e-02,1.370766e+00,76,35,3.187676e-01,3.917493e-01,8.488461e-03,8.318462e-02,7.244293e-06,4.000000e-01,8,2,1,1,1,2,3,4.587654e-01,1,1,Right,Vertical,Right,Vertical,Neither,Right,None,Staircase calibration,C
2,1,4,1,5.000000e-02,6.853828e-02,1.370766e+00,76,45,3.189403e-01,3.916760e-01,8.355348e-03,8.332106e-02,7.244293e-06,4.000000e-01,8,2,1,0,0,2,3,4.337992e-01,0,1,Left,Vertical,Left,Vertical,Neither,Left,None,Staircase calibration,C
2,1,4,1,5.000000e-02,6.853828e-02,1.370766e+00,76,40,3.188235e-01,3.667587e-01,3.334201e-02,8.327639e-02,6.942544e-06,4.000000e-01,34,2,1,1,1,2,3,5.754538e-01,1,1,Right,Vertical,Right,Vertical,Neither,Right,None,Staircase calibration,C
2,1,4,1,5.000000e-02,6.853828e-02,1.370766e+00,76,45,3.188947e-01,3.666987e-01,3.335891e-02,8.330597e-02,7.244293e-06,4.000000e-01,34,2,1,1,1,2,3,4.337606e-01,1,1,Right,Vertical,Right,Vertical,Neither,Right,None,Staircase calibration,C
2,1,4,1,5.000000e-02,6.853828e-02,1.370766e+00,76,40,3.189675e-01,2.666995e-01,1.333478e-01,8.336392e-02,8.149771e-06,4.000000e-01,134,2,1,1,1,2,3,5.171067e-01,1,1,Right,Vertical,Right,Vertical,Neither,Right,None,Staircase calibration,C
2,1,4,1,5.000000e-02,6.853828e-02,1.370766e+00,76,45,3.187818e-01,2.667279e-01,1.333378e-01,8.336784e-02,7.244293e-06,4.000000e-01,134,2,1,1,1,2,3,4.754205e-01,1,1,Right,Vertical,Right,Vertical,Neither,Right,None,Staircase calibration,C
2,1,4,1,5.000000e-02,6.853828e-02,1.370766e+00,76,50,3.188796e-01,2.666443e-01,1.334390e-01,8.324560e-02,7.546041e-06,4.000000e-01,134,2,1,0,0,2,3,3.920385e-01,0,1,Left,Vertical,Left,Vertical,Neither,Left,None,Staircase calibration,C
2,1,4,1,5.000000e-02,6.853828e-02,1.370766e+00,76,50,3.187679e-01,3.917412e-01,8.359574e-03,8.331412e-02,6.942544e-06,4.000000e-01,8,2,1,1,1,2,3,4.337663e-01,1,1,Right,Vertical,Right,Vertical,Neither,Right,None,Staircase calibration,C
2,1,4,1,5.000000e-02,6.853828e-02,1.370766e+00,76,35,3.105560e-01,3.666718e-01,3.336555e-02,8.333706e-02,7.244060e-06,4.000000e-01,34,2,1,0,0,2,3,4.171251e-01,0,1,Left,Vertical,Left,Vertical,Neither,Left,None,Staircase calibration,C
2,1,4,1,5.000000e-02,6.853828e-02,1.370766e+00,76,50,3.189370e-01,2.666853e-01,1.333173e-01,8.333706e-02,7.244293e-06,4.000000e-01,134,2,1,0,0,2,3,5.338425e-01,0,1,Left,Vertical,Left,Vertical,Neither,Left,None,Staircase calibration,C
2,1,4,1,5.000000e-02,6.853828e-02,1.370766e+00,76,40,3.188772e-01,3.916693e-01,8.337237e-03,8.330778e-02,8.451520e-06,4.000000e-01,8,2,1,0,0,2,3,5.087517e-01,0,1,Left,Vertical,Left,Vertical,Neither,Left,None,Staircase calibration,C
2,1,4,1,5.000000e-02,6.853828e-02,1.370766e+00,76,50,3.188657e-01,3.916461e-01,8.327276e-03,8.336935e-02,7.244293e-06,4.000000e-01,8,2,1,0,0,2,3,4.170626e-01,0,1,Left,Vertical,Left,Vertical,Neither,Left,None,Staircase calibration,C
2,1,4,1,5.000000e-02,6.853828e-02,1.370766e+00,76,45,3.108605e-01,2.666213e-01,1.333735e-01,8.333796e-02,7.244060e-06,4.000000e-01,134,2,1,1,1,2,3,3.754519e-01,1,1,Right,Vertical,Right,Vertical,Neither,Right,None,Staircase calibration,C
2,1,4,1,5.000000e-02,6.853828e-02,1.370766e+00,76,35,3.107648e-01,3.667159e-01,3.332027e-02,8.332891e-02,7.546041e-06,4.000000e-01,34,2,1,0,0,2,3,4.504372e-01,0,1,Left,Vertical,Left,Vertical,Neither,Left,None,Staircase calibration,C
2,1,4,1,5.000000e-02,6.853828e-02,1.370766e+00,76,45,3.105853e-01,2.666899e-01,1.333460e-01,8.338626e-02,8.753501e-06,4.000000e-01,134,2,1,0,0,2,3,5.420876e-01,0,1,Left,Vertical,Left,Vertical,Neither,Left,None,Staircase calibration,C
2,1,4,1,5.000000e-02,6.201600e-02,1.240320e+00,76,50,3.106248e-01,3.917098e-01,8.357461e-03,8.329751e-02,7.546274e-06,4.000000e-01,8,2,1,1,1,2,3,3.671098e-01,1,1,Right,Vertical,Right,Vertical,Neither,Right,None,Staircase calibration,C
2,1,4,1,5.000000e-02,6.201600e-02,1.240320e+00,76,45,3.189077e-01,3.917276e-01,8.307656e-03,8.328604e-02,7.848023e-06,4.000000e-01,8,2,1,0,0,2,3,5.838182e-01,0,1,Left,Vertical,Left,Vertical,Neither,Left,None,Staircase calibration,C
2,1,4,1,5.000000e-02,6.201600e-02,1.240320e+00,76,40,3.188645e-01,2.666890e-01,1.334106e-01,8.330929e-02,9.658979e-06,4.000000e-01,134,2,1,0,0,2,3,5.670843e-01,0,1,Left,Vertical,Left,Vertical,Neither,Left,None,Staircase calibration,C
2,1,4,1,5.000000e-02,6.201600e-02,1.240320e+00,76,35,3.188760e-01,2.666980e-01,1.333683e-01,8.331925e-02,7.244293e-06,4.000000e-01,134,2,1,0,0,2,3,7.504585e-01,0,1,Left,Vertical,Left,Vertical,Neither,Left,None,Staircase calibration,C
2,1,4,1,5.000000e-02,6.201600e-02,1.240320e+00,76,55,3.187130e-01,3.667053e-01,3.336012e-02,8.331683e-02,6.942544e-06,4.000000e-01,34,2,1,0,0,2,3,5.254693e-01,0,1,Left,Vertical,Left,Vertical,Neither,Left,None,Staircase calibration,C
2,1,4,1,5.000000e-02,6.201600e-02,1.240320e+00,76,55,3.187960e-01,3.667126e-01,3.333567e-02,8.334551e-02,6.942311e-06,4.000000e-01,34,2,1,1,1,2,3,3.587668e-01,1,1,Right,Vertical,Right,Vertical,Neither,Right,None,Staircase calibration,C
2,1,4,1,5.000000e-02,6.201600e-02,1.240320e+00,76,55,3.106396e-01,3.666981e-01,3.337189e-02,8.335517e-02,7.546041e-06,4.000000e-01,34,2,1,1,1,2,3,4.170756e-01,1,1,Right,Vertical,Right,Vertical,Neither,Right,None,Staircase calibration,C
2,1,4,1,5.000000e-02,6.201600e-02,1.240320e+00,76,35,3.189777e-01,3.916552e-01,8.333012e-03,8.330989e-02,7.244293e-06,4.000000e-01,8,2,1,1,1,2,3,4.921922e-01,0,0,Left,Vertical,Right,Vertical,Neither,Right,None,Staircase calibration,C
2,1,4,1,5.000000e-02,6.201600e-02,1.240320e+00,76,55,3.187999e-01,3.666987e-01,3.333929e-02,8.333162e-02,7.546041e-06,4.000000e-01,34,2,1,0,0,2,3,5.254630e-01,0,1,Left,Vertical,Left,Vertical,Neither,Left,None,Staircase calibration,C
2,1,4,1,5.000000e-02,6.201600e-02,1.240320e+00,76,45,3.106106e-01,3.666776e-01,3.335982e-02,8.331653e-02,7.244293e-06,4.000000e-01,34,2,1,0,0,2,3,7.921094e-01,0,1,Left,Vertical,Left,Vertical,Neither,Left,None,Staircase calibration,C
2,1,4,1,5.000000e-02,6.201600e-02,1.240320e+00,76,40,3.188235e-01,2.666543e-01,1.333861e-01,8.333253e-02,7.848023e-06,4.000000e-01,134,2,1,0,0,2,3,5.420638e-01,0,1,Left,Vertical,Left,Vertical,Neither,Left,None,Staircase calibration,C
2,1,4,1,5.000000e-02,6.201600e-02,1.240320e+00,76,50,3.188546e-01,3.666951e-01,3.333959e-02,8.333857e-02,7.244293e-06,4.000000e-01,34,2,1,0,0,2,3,5.006085e-01,0,1,Left,Vertical,Left,Vertical,Neither,Left,None,Staircase calibration,C
2,1,4,1,5.000000e-02,6.201600e-02,1.240320e+00,76,35,3.188440e-01,2.666340e-01,1.333726e-01,8.333736e-02,7.244293e-06,4.000000e-01,134,2,1,0,0,2,3,5.671667e-01,0,1,Left,Vertical,Left,Vertical,Neither,Left,None,Staircase calibration,C
2,1,4,1,5.000000e-02,6.201600e-02,1.240320e+00,76,45,3.187577e-01,3.917134e-01,8.327578e-03,8.330295e-02,7.244293e-06,4.000000e-01,8,2,1,1,1,2,3,8.088234e-01,1,1,Right,Vertical,Right,Vertical,Neither,Right,None,Staircase calibration,C
2,1,4,1,5.000000e-02,6.201600e-02,1.240320e+00,76,55,3.186315e-01,2.666494e-01,1.333466e-01,8.345779e-02,8.753501e-06,4.000000e-01,134,2,1,1,1,2,3,5.087001e-01,1,1,Right,Vertical,Right,Vertical,Neither,Right,None,Staircase calibration,C
2,1,4,1,5.000000e-02,6.201600e-02,1.240320e+00,76,40,3.106779e-01,3.917424e-01,8.294074e-03,8.335004e-02,7.244293e-06,4.000000e-01,8,2,1,1,1,2,3,4.421060e-01,0,0,Left,Vertical,Right,Vertical,Neither,Right,None,Staircase calibration,C
2,1,4,1,5.000000e-02,6.201600e-02,1.240320e+00,76,55,3.188042e-01,3.667159e-01,3.333567e-02,8.333706e-02,7.244293e-06,4.000000e-01,34,2,1,1,1,2,3,4.171018e-01,1,1,Right,Vertical,Right,Vertical,Neither,Right,None,Staircase calibration,C
2,1,4,1,5.000000e-02,6.201600e-02,1.240320e+00,76,55,3.107135e-01,2.666709e-01,1.333427e-01,8.333343e-02,7.244293e-06,4.000000e-01,134,2,1,1,1,2,3,7.588018e-01,1,1,Right,Vertical,Right,Vertical,Neither,Right,None,Staircase calibration,C
2,1,4,1,5.000000e-02,6.201600e-02,1.240320e+00,76,40,3.185573e-01,2.667234e-01,1.333466e-01,8.332468e-02,7.546274e-06,4.000000e-01,134,2,1,0,0,2,3,3.670974e-01,0,1,Left,Vertical,Left,Vertical,Neither,Left,None,Staircase calibration,C
2,1,4,1,5.000000e-02,6.201600e-02,1.240320e+00,76,55,3.105856e-01,3.917167e-01,8.320334e-03,8.333736e-02,7.244293e-06,4.000000e-01,8,2,1,1,1,2,3,4.754755e-01,1,1,Right,Vertical,Right,Vertical,Neither,Right,None,Staircase calibration,C
2,1,5,2,5.000000e-02,6.201600e-02,1.240320e+00,76,35,3.136143e-01,3.916337e-01,8.383118e-03,8.330838e-02,7.244293e-06,4.000000e-01,8,0,3,0,0,2,3,3.834833e-01,0,1,Left,Left,Left,Vertical,Target primed,Left,None,Main study,C
2,1,5,2,5.000000e-02,6.201600e-02,1.240320e+00,76,55,3.188497e-01,3.917028e-01,8.323353e-03,8.334822e-02,7.244293e-06,4.000000e-01,8,0,3,0,0,2,3,7.004586e-01,1,0,Right,Left,Left,Vertical,Target primed,Left,None,Main study,C
2,1,5,2,5.000000e-02,6.201600e-02,1.240320e+00,76,50,3.186632e-01,2.666905e-01,1.333415e-01,8.334551e-02,7.847790e-06,4.000000e-01,134,1,2,0,0,2,3,5.670994e-01,0,1,Left,Right,Left,Vertical,Foil primed,Left,None,Main study,C
2,1,5,2,5.000000e-02,6.201600e-02,1.240320e+00,76,40,3.188398e-01,2.666567e-01,1.333747e-01,8.333796e-02,7.244060e-06,4.000000e-01,134,1,3,1,1,2,3,6.504615e-01,0,0,Left,Right,Right,Vertical,Target primed,Right,None,Main study,C
2,1,5,2,5.000000e-02,6.201600e-02,1.240320e+00,76,55,3.188712e-01,3.917167e-01,8.371044e-03,8.328816e-02,9.055249e-06,4.000000e-01,8,0,2,1,1,2,3,6.754560e-01,1,1,Right,Left,Right,Vertical,Foil primed,Right,None,Main study,C
2,1,5,2,5.000000e-02,6.201600e-02,1.240320e+00,76,55,3.188540e-01,3.666576e-01,3.334895e-02,8.333645e-02,7.244293e-06,4.000000e-01,34,1,3,1,1,2,3,5.254657e-01,1,1,Right,Right,Right,Vertical,Target primed,Right,None,Main study,C
2,1,5,2,5.000000e-02,6.201600e-02,1.240320e+00,76,55,3.189146e-01,3.916648e-01,8.373458e-03,8.333404e-02,7.244293e-06,4.000000e-01,8,0,3,0,0,2,3,5.254593e-01,1,0,Right,Left,Left,Vertical,Target primed,Left,None,Main study,C
2,1,5,2,5.000000e-02,6.201600e-02,1.240320e+00,76,40,3.186738e-01,3.917013e-01,8.336332e-03,8.330748e-02,7.546274e-06,4.000000e-01,8,0,2,1,1,2,3,4.587696e-01,1,1,Right,Left,Right,Vertical,Foil primed,Right,None,Main study,C
2,1,5,2,5.000000e-02,6.201600e-02,1.240320e+00,76,45,3.108032e-01,3.917303e-01,8.307958e-03,8.333585e-02,7.244293e-06,4.000000e-01,8,0,3,0,0,2,3,1.075492e+00,0,1,Left,Left,Left,Vertical,Target primed,Left,None,Main study,C
2,1,5,2,5.000000e-02,6.201600e-02,1.240320e+00,76,35,3.186194e-01,2.666772e-01,1.333514e-01,8.333494e-02,6.942311e-06,4.000000e-01,134,0,3,0,0,2,3,1.033855e+00,0,1,Left,Left,Left,Vertical,Target primed,Left,None,Main study,C
2,1,5,2,5.000000e-02,6.201600e-02,1.240320e+00,76,40,3.186677e-01,3.667092e-01,3.331333e-02,8.335034e-02,7.244293e-06,4.000000e-01,34,0,2,1,1,2,3,7.671115e-01,1,1,Right,Left,Right,Vertical,Foil primed,Right,None,Main study,C
2,1,5,2,5.000000e-02,6.201600e-02,1.240320e+00,76,55,3.188190e-01,3.666709e-01,3.336796e-02,8.331834e-02,7.244293e-06,4.000000e-01,34,1,2,0,0,2,3,1.317199e+00,1,0,Right,Right,Left,Vertical,Foil primed,Left,None,Main study,C
2,1,5,2,5.000000e-02,6.201600e-02,1.240320e+00,76,50,3.185268e-01,3.916582e-01,8.335728e-03,8.333706e-02,7.546274e-06,4.000000e-01,8,1,2,0,0,2,3,8.754842e-01,0,1,Left,Right,Left,Vertical,Foil primed,Left,None,Main study,C
2,1,5,2,5.000000e-02,6.201600e-02,1.240320e+00,76,40,3.187257e-01,2.667303e-01,1.333493e-01,8.332619e-02,7.244060e-06,4.000000e-01,134,1,2,0,0,2,3,4.004201e-01,0,1,Left,Right,Left,Vertical,Foil primed,Left,None,Main study,C
2,1,5,2,5.000000e-02,6.201600e-02,1.240320e+00,76,40,3.189762e-01,2.666567e-01,1.333626e-01,8.333313e-02,7.244293e-06,4.000000e-01,134,1,3,1,1,2,3,7.504461e-01,0,0,Left,Right,Right,Vertical,Target primed,Right,None,Main study,C
2,1,5,2,5.000000e-02,6.201600e-02,1.240320e+00,76,55,3.189388e-01,3.666763e-01,3.333869e-02,8.328755e-02,7.546041e-06,4.000000e-01,34,1,2,0,0,2,3,5.838116e-01,0,1,Left,Right,Left,Vertical,Foil primed,Left,None,Main study,C
2,1,5,2,5.000000e-02,6.201600e-02,1.240320e+00,76,45,3.189246e-01,3.917016e-01,8.338746e-03,8.333525e-02,7.244293e-06,4.000000e-01,8,0,3,0,0,2,3,7.338224e-01,0,1,Left,Left,Left,Vertical,Target primed,Left,None,Main study,C
2,1,5,2,5.000000e-02,6.201600e-02,1.240320e+00,76,40,3.188869e-01,2.666651e-01,1.333336e-01,8.333766e-02,7.546041e-06,4.000000e-01,134,0,3,0,0,2,3,7.504582e-01,1,0,Right,Left,Left,Vertical,Target primed,Left,None,Main study,C
2,1,5,2,5.000000e-02,6.201600e-02,1.240320e+00,76,45,3.188093e-01,3.917339e-01,8.335124e-03,8.333675e-02,7.244293e-06,4.000000e-01,8,0,2,1,1,2,3,4.004331e-01,1,1,Right,Left,Right,Vertical,Foil primed,Right,None,Main study,C
2,1,5,2,5.000000e-02,6.201600e-02,1.240320e+00,76,45,3.106885e-01,2.667288e-01,1.333460e-01,8.335064e-02,7.546274e-06,4.000000e-01,134,1,2,0,0,2,3,3.587587e-01,0,1,Left,Right,Left,Vertical,Foil primed,Left,None,Main study,C
2,1,5,2,5.000000e-02,6.201600e-02,1.240320e+00,76,35,3.187797e-01,3.916675e-01,8.336935e-03,8.333947e-02,7.546274e-06,4.000000e-01,8,1,3,1,1,2,3,7.004991e-01,0,0,Left,Right,Right,Vertical,Target primed,Right,None,Main study,C
2,1,5,2,5.000000e-02,6.201600e-02,1.240320e+00,76,40,3.189382e-01,3.666887e-01,3.334865e-02,8.335396e-02,7.244293e-06,4.000000e-01,34,1,2,0,0,2,3,5.420786e-01,0,1,Left,Right,Left,Vertical,Foil primed,Left,None,Main study,C
2,1,5,2,5.000000e-02,6.201600e-02,1.240320e+00,76,50,3.106175e-01,3.666993e-01,3.333748e-02,8.336996e-02,7.244293e-06,4.000000e-01,34,1,3,1,1,2,3,8.004578e-01,1,1,Right,Right,Right,Vertical,Target primed,Right,None,Main study,C
2,1,5,2,5.000000e-02,6.201600e-02,1.240320e+00,76,50,3.188193e-01,3.916917e-01,8.337237e-03,8.334641e-02,7.546041e-06,4.000000e-01,8,0,2,1,1,2,3,4.170846e-01,1,1,Right,Left,Right,Vertical,Foil primed,Right,None,Main study,C
2,1,5,2,5.000000e-02,6.201600e-02,1.240320e+00,76,35,3.107310e-01,3.666769e-01,3.332420e-02,8.335275e-02,7.244293e-06,4.000000e-01,34,0,3,0,0,2,3,8.255000e-01,0,1,Left,Left,Left,Vertical,Target primed,Left,None,Main study,C
2,1,5,2,5.000000e-02,6.201600e-02,1.240320e+00,76,55,3.187196e-01,2.666944e-01,1.333457e-01,8.336301e-02,7.244060e-06,4.000000e-01,134,1,2,0,0,2,3,5.838209e-01,0,1,Left,Right,Left,Vertical,Foil primed,Left,None,Main study,C
2,1,5,2,5.000000e-02,6.201600e-02,1.240320e+00,76,35,3.188422e-01,3.916690e-01,8.336935e-03,8.336875e-02,7.244293e-06,4.000000e-01,8,1,2,0,0,2,3,1.475536e+00,1,0,Right,Right,Left,Vertical,Foil primed,Left,None,Main study,C
2,1,5,2,5.000000e-02,6.201600e-02,1.240320e+00,76,40,3.183722e-01,3.666978e-01,3.332571e-02,8.334973e-02,7.244293e-06,4.000000e-01,34,0,2,1,1,2,3,5.837796e-01,0,0,Left,Left,Right,Vertical,Foil primed,Right,None,Main study,C
2,1,5,2,5.000000e-02,6.201600e-02,1.240320e+00,76,40,3.188027e-01,2.666693e-01,1.333716e-01,8.330868e-02,7.244293e-06,4.000000e-01,134,1,2,0,0,2,3,4.504568e-01,0,1,Left,Right,Left,Vertical,Foil primed,Left,None,Main study,C
2,1,5,2,5.000000e-02,6.201600e-02,1.240320e+00,76,35,3.106701e-01,2.666675e-01,1.333698e-01,8.333675e-02,6.942311e-06,4.000000e-01,134,1,2,0,0,2,3,3.837547e-01,0,1,Left,Right,Left,Vertical,Foil primed,Left,None,Main study,C
2,1,5,2,5.000000e-02,6.201600e-02,1.240320e+00,76,35,3.189098e-01,2.667010e-01,1.333478e-01,8.332860e-02,7.546041e-06,4.000000e-01,134,0,3,0,0,2,3,5.087553e-01,0,1,Left,Left,Left,Vertical,Target primed,Left,None,Main study,C
2,1,5,2,5.000000e-02,6.201600e-02,1.240320e+00,76,50,3.188217e-01,3.666884e-01,3.334834e-02,8.332528e-02,7.847790e-06,4.000000e-01,34,1,2,0,0,2,3,7.087965e-01,0,1,Left,Right,Left,Vertical,Foil primed,Left,None,Main study,C
2,1,5,2,5.000000e-02,6.201600e-02,1.240320e+00,76,45,3.189119e-01,3.666685e-01,3.337038e-02,8.329238e-02,7.244293e-06,4.000000e-01,34,1,2,0,0,2,3,4.087712e-01,0,1,Left,Right,Left,Vertical,Foil primed,Left,None,Main study,C
2,1,5,2,5.000000e-02,6.201600e-02,1.240320e+00,76,45,3.106984e-01,3.917101e-01,8.337539e-03,8.336392e-02,7.244293e-06,4.000000e-01,8,0,3,0,0,2,3,1.217141e+00,0,1,Left,Left,Left,Vertical,Target primed,Left,None,Main study,C
2,1,5,2,5.000000e-02,6.201600e-02,1.240320e+00,76,45,3.186647e-01,3.917116e-01,8.323050e-03,8.333706e-02,7.244293e-06,4.000000e-01,8,1,2,0,0,2,3,8.421578e-01,0,1,Left,Right,Left,Vertical,Foil primed,Left,None,Main study,C
2,1,5,2,5.000000e-02,6.201600e-02,1.240320e+00,76,45,3.106577e-01,3.916678e-01,8.336935e-03,8.337026e-02,7.244293e-06,4.000000e-01,8,1,2,0,0,2,3,6.004278e-01,0,1,Left,Right,Left,Vertical,Foil primed,Left,None,Main study,C
2,1,5,2,5.000000e-02,6.201600e-02,1.240320e+00,76,35,3.185117e-01,3.667174e-01,3.331907e-02,8.333645e-02,7.244293e-06,4.000000e-01,34,1,3,1,1,2,3,4.587542e-01,0,0,Left,Right,Right,Vertical,Target primed,Right,None,Main study,C
2,1,5,2,5.000000e-02,6.201600e-02,1.240320e+00,76,35,3.107072e-01,3.667071e-01,3.334020e-02,8.333615e-02,7.244293e-06,4.000000e-01,34,1,3,1,1,2,3,9.088102e-01,0,0,Left,Right,Right,Vertical,Target primed,Right,None,Main study,C
2,1,5,2,5.000000e-02,6.201600e-02,1.240320e+00,76,45,3.188181e-01,3.666797e-01,3.332873e-02,8.341342e-02,1.056446e-05,4.000000e-01,34,0,3,0,0,2,3,7.170694e-01,0,1,Left,Left,Left,Vertical,Target primed,Left,None,Main study,C
2,1,5,2,5.000000e-02,6.201600e-02,1.240320e+00,76,35,3.188168e-01,3.667086e-01,3.333567e-02,8.337086e-02,7.244293e-06,4.000000e-01,34,0,2,1,1,2,3,5.754302e-01,1,1,Right,Left,Right,Vertical,Foil primed,Right,None,Main study,C
2,1,5,2,5.000000e-02,6.201600e-02,1.240320e+00,76,55,3.187945e-01,3.667295e-01,3.333869e-02,8.334913e-02,7.546041e-06,4.000000e-01,34,0,2,1,1,2,3,4.170774e-01,1,1,Right,Left,Right,Vertical,Foil primed,Right,None,Main study,C
2,1,5,2,5.000000e-02,6.201600e-02,1.240320e+00,76,35,3.107111e-01,2.667104e-01,1.334371e-01,8.329087e-02,9.055249e-06,4.000000e-01,134,0,2,1,1,2,3,5.337546e-01,1,1,Right,Left,Right,Vertical,Foil primed,Right,None,Main study,C
2,1,5,2,5.000000e-02,6.201600e-02,1.240320e+00,76,45,3.107123e-01,2.666893e-01,1.333052e-01,8.336301e-02,6.942544e-06,4.000000e-01,134,0,2,1,1,2,3,4.004633e-01,1,1,Right,Left,Right,Vertical,Foil primed,Right,None,Main study,C
2,1,5,2,5.000000e-02,6.201600e-02,1.240320e+00,76,55,3.106366e-01,3.917336e-01,8.317617e-03,8.335698e-02,6.942311e-06,4.000000e-01,8,0,2,1,1,2,3,4.754242e-01,1,1,Right,Left,Right,Vertical,Foil primed,Right,None,Main study,C
2,1,5,2,5.000000e-02,6.201600e-02,1.240320e+00,76,35,3.106616e-01,3.666975e-01,3.334020e-02,8.335124e-02,7.244293e-06,4.000000e-01,34,1,2,0,0,2,3,3.920859e-01,0,1,Left,Right,Left,Vertical,Foil primed,Left,None,Main study,C
2,1,5,2,5.000000e-02,6.201600e-02,1.240320e+00,76,45,3.106450e-01,2.666057e-01,1.333864e-01,8.333253e-02,7.244060e-06,4.000000e-01,134,0,3,0,0,2,3,5.171360e-01,0,1,Left,Left,Left,Vertical,Target primed,Left,None,Main study,C
2,1,5,2,5.000000e-02,6.201600e-02,1.240320e+00,76,55,3.189158e-01,3.917484e-01,8.335728e-03,8.336030e-02,7.244293e-06,4.000000e-01,8,0,3,0,0,2,3,4.170786e-01,1,0,Right,Left,Left,Vertical,Target primed,Left,None,Main study,C
2,1,5,2,5.000000e-02,6.201600e-02,1.240320e+00,76,50,3.106562e-01,3.917059e-01,8.332408e-03,8.333615e-02,7.244293e-06,4.000000e-01,8,1,3,1,1,2,3,3.671291e-01,1,1,Right,Right,Right,Vertical,Target primed,Right,None,Main study,C
2,1,5,2,5.000000e-02,6.201600e-02,1.240320e+00,76,55,3.106903e-01,3.666703e-01,3.337219e-02,8.331381e-02,7.244293e-06,4.000000e-01,34,0,2,1,1,2,3,3.587635e-01,1,1,Right,Left,Right,Vertical,Foil primed,Right,None,Main study,C
2,1,5,2,5.000000e-02,6.201600e-02,1.240320e+00,76,55,3.107624e-01,3.667397e-01,3.332540e-02,8.335366e-02,6.942311e-06,4.000000e-01,34,0,2,1,1,2,3,3.587713e-01,1,1,Right,Left,Right,Vertical,Foil primed,Right,None,Main study,C
2,1,5,2,5.000000e-02,6.201600e-02,1.240320e+00,76,50,3.107304e-01,3.666730e-01,3.333899e-02,8.337056e-02,9.658979e-06,4.000000e-01,34,0,2,1,1,2,3,4.004280e-01,1,1,Right,Left,Right,Vertical,Foil primed,Right,None,Main study,C
2,1,5,2,5.000000e-02,6.201600e-02,1.240320e+00,76,55,3.107368e-01,3.916715e-01,8.360781e-03,8.331442e-02,7.244293e-06,4.000000e-01,8,0,3,0,0,2,3,4.255191e-01,1,0,Right,Left,Left,Vertical,Target primed,Left,None,Main study,C
2,1,5,2,5.000000e-02,6.201600e-02,1.240320e+00,76,40,3.107615e-01,2.666862e-01,1.333505e-01,8.333645e-02,7.546041e-06,4.000000e-01,134,0,3,0,0,2,3,1.075453e+00,0,1,Left,Left,Left,Vertical,Target primed,Left,None,Main study,C
2,1,5,2,5.000000e-02,6.201600e-02,1.240320e+00,76,40,3.186206e-01,3.917717e-01,8.317315e-03,8.327910e-02,7.847790e-06,4.000000e-01,8,0,3,0,0,2,3,1.058872e+00,1,0,Right,Left,Left,Vertical,Target primed,Left,None,Main study,C
2,1,5,2,5.000000e-02,6.201600e-02,1.240320e+00,76,55,3.185618e-01,2.666865e-01,1.333131e-01,8.339169e-02,6.942311e-06,4.000000e-01,134,0,2,1,1,2,3,3.837710e-01,1,1,Right,Left,Right,Vertical,Foil primed,Right,None,Main study,C
2,1,5,2,5.000000e-02,6.201600e-02,1.240320e+00,76,40,3.107830e-01,2.666745e-01,1.333122e-01,8.331895e-02,7.546041e-06,4.000000e-01,134,0,2,1,1,2,3,5.254802e-01,1,1,Right,Left,Right,Vertical,Foil primed,Right,None,Main study,C
2,1,5,2,5.000000e-02,6.201600e-02,1.240320e+00,76,45,3.107009e-01,3.916075e-01,8.387042e-03,8.335124e-02,9.357231e-06,4.000000e-01,8,1,2,0,0,2,3,3.837372e-01,0,1,Left,Right,Left,Vertical,Foil primed,Left,None,Main study,C
2,1,5,2,5.000000e-02,6.201600e-02,1.240320e+00,76,55,3.106948e-01,3.667095e-01,3.333869e-02,8.334430e-02,7.244293e-06,4.000000e-01,34,1,2,0,0,2,3,5.587736e-01,1,0,Right,Right,Left,Vertical,Foil primed,Left,None,Main study,C
2,1,5,2,5.000000e-02,6.201600e-02,1.240320e+00,76,45,3.188751e-01,3.667286e-01,3.335921e-02,8.330627e-02,7.546041e-06,4.000000e-01,34,0,2,1,1,2,3,4.254339e-01,1,1,Right,Left,Right,Vertical,Foil primed,Right,None,Main study,C
2,1,5,2,5.000000e-02,6.201600e-02,1.240320e+00,76,35,3.188947e-01,3.917007e-01,8.335728e-03,8.334551e-02,7.546041e-06,4.000000e-01,8,1,3,1,1,2,3,6.254341e-01,0,0,Left,Right,Right,Vertical,Target primed,Right,None,Main study,C
2,1,6,2,5.000000e-02,6.201600e-02,1.240320e+00,76,40,3.150842e-01,2.667219e-01,1.333101e-01,8.333615e-02,6.942311e-06,4.000000e-01,134,0,3,0,0,2,3,6.338253e-01,1,0,Right,Left,Left,Vertical,Target primed,Left,None,Main study,C
2,1,6,2,5.000000e-02,6.201600e-02,1.240320e+00,76,45,3.105822e-01,2.667095e-01,1.333303e-01,8.333524e-02,7.244293e-06,4.000000e-01,134,1,2,0,0,2,3,6.671423e-01,1,0,Right,Right,Left,Vertical,Foil primed,Left,None,Main study,C
2,1,6,2,5.000000e-02,6.201600e-02,1.240320e+00,76,35,3.187547e-01,3.917418e-01,8.333615e-03,8.333766e-02,7.546041e-06,4.000000e-01,8,1,3,1,1,2,3,3.670769e-01,1,1,Right,Right,Right,Vertical,Target primed,Right,None,Main study,C
2,1,6,2,5.000000e-02,6.201600e-02,1.240320e+00,76,35,3.107845e-01,3.667301e-01,3.333929e-02,8.333917e-02,7.244293e-06,4.000000e-01,34,1,3,1,1,2,3,7.254374e-01,0,0,Left,Right,Right,Vertical,Target primed,Right,None,Main study,C
2,1,6,2,5.000000e-02,6.201600e-02,1.240320e+00,76,55,3.187972e-01,2.666872e-01,1.333499e-01,8.334581e-02,7.546274e-06,4.000000e-01,134,0,2,1,1,2,3,3.587315e-01,1,1,Right,Left,Right,Vertical,Foil primed,Right,None,Main study,C
2,1,6,2,5.000000e-02,6.201600e-02,1.240320e+00,76,40,3.107000e-01,3.917080e-01,8.336332e-03,8.340618e-02,1.056446e-05,4.000000e-01,8,0,2,1,1,2,3,7.587302e-01,1,1,Right,Left,Right,Vertical,Foil primed,Right,None,Main study,C
2,1,6,2,5.000000e-02,6.201600e-02,1.240320e+00,76,50,3.187414e-01,3.666872e-01,3.334804e-02,8.335788e-02,6.942544e-06,4.000000e-01,34,1,3,1,1,2,3,6.087391e-01,1,1,Right,Right,Right,Vertical,Target primed,Right,None,Main study,C
2,1,6,2,5.000000e-02,6.201600e-02,1.240320e+00,76,40,3.187842e-01,2.666923e-01,1.333333e-01,8.333615e-02,7.244293e-06,4.000000e-01,134,0,3,0,0,2,3,4.005641e-01,1,0,Right,Left,Left,Vertical,Target primed,Left,None,Main study,C
2,1,6,2,5.000000e-02,6.201600e-02,1.240320e+00,76,50,3.187519e-01,2.666899e-01,1.334411e-01,8.326310e-02,7.546041e-06,4.000000e-01,134,1,2,0,0,2,3,3.420978e-01,0,1,Left,Right,Left,Vertical,Foil primed,Left,None,Main study,C
2,1,6,2,5.000000e-02,6.201600e-02,1.240320e+00,76,50,3.189940e-01,3.916470e-01,8.384929e-03,8.327005e-02,7.244060e-06,4.000000e-01,8,0,2,1,1,2,3,3.838108e-01,1,1,Right,Left,Right,Vertical,Foil primed,Right,None,Main study,C
2,1,6,2,5.000000e-02,6.201600e-02,1.240320e+00,76,40,3.106758e-01,2.666856e-01,1.333575e-01,8.333011e-02,7.546041e-06,4.000000e-01,134,1,2,0,0,2,3,3.921553e-01,0,1,Left,Right,Left,Vertical,Foil primed,Left,None,Main study,C
2,1,6,2,5.000000e-02,6.201600e-02,1.240320e+00,76,45,3.106323e-01,2.667173e-01,1.333662e-01,8.331200e-02,7.546041e-06,4.000000e-01,134,0,3,0,0,2,3,3.421086e-01,1,0,Right,Left,Left,Vertical,Target primed,Left,None,Main study,C
2,1,6,2,5.000000e-02,6.201600e-02,1.240320e+00,76,35,3.106957e-01,3.667591e-01,3.333929e-02,8.333826e-02,7.244293e-06,4.000000e-01,34,0,3,0,0,2,3,6.338054e-01,0,1,Left,Left,Left,Vertical,Target primed,Left,None,Main study,C
2,1,6,2,5.000000e-02,6.201600e-02,1.240320e+00,76,40,3.186907e-01,3.667243e-01,3.331756e-02,8.333736e-02,6.942544e-06,4.000000e-01,34,1,3,1,1,2,3,6.337517e-01,0,0,Left,Right,Right,Vertical,Target primed,Right,None,Main study,C
2,1,6,2,5.000000e-02,6.201600e-02,1.240320e+00,76,45,3.167368e-01,3.666993e-01,3.333838e-02,8.339199e-02,1.086644e-05,4.000000e-01,34,0,2,1,1,2,3,3.586962e-01,1,1,Right,Left,Right,Vertical,Foil primed,Right,None,Main study,C
2,1,6,2,5.000000e-02,6.201600e-02,1.240320e+00,76,35,3.106969e-01,3.917056e-01,8.331200e-03,8.330898e-02,7.546041e-06,4.000000e-01,8,1,2,0,0,2,3,3.504359e-01,0,1,Left,Right,Left,Vertical,Foil primed,Left,None,Main study,C
2,1,6,2,5.000000e-02,6.201600e-02,1.240320e+00,76,55,3.107727e-01,3.916832e-01,8.339350e-03,8.333374e-02,7.244293e-06,4.000000e-01,8,0,3,0,0,2,3,6.254479e-01,1,0,Right,Left,Left,Vertical,Target primed,Left,None,Main study,C
2,1,6,2,5.000000e-02,6.201600e-02,1.240320e+00,76,55,3.183647e-01,3.666975e-01,3.334140e-02,8.331774e-02,7.546274e-06,4.000000e-01,34,1,3,1,1,2,3,4.921176e-01,0,0,Left,Right,Right,Vertical,Target primed,Right,None,Main study,C
2,1,6,2,5.000000e-02,6.201600e-02,1.240320e+00,76,50,3.107060e-01,2.666561e-01,1.334042e-01,8.331502e-02,7.244060e-06,4.000000e-01,134,1,3,1,1,2,3,4.004286e-01,1,1,Right,Right,Right,Vertical,Target primed,Right,None,Main study,C
2,1,6,2,5.000000e-02,6.201600e-02,1.240320e+00,76,35,3.188751e-01,2.666884e-01,1.333581e-01,8.335637e-02,7.244293e-06,4.000000e-01,134,0,3,0,0,2,3,7.671396e-01,0,1,Left,Left,Left,Vertical,Target primed,Left,None,Main study,C
2,1,6,2,5.000000e-02,6.201600e-02,1.240320e+00,76,50,3.187716e-01,3.916844e-01,8.335124e-03,8.333736e-02,7.244293e-06,4.000000e-01,8,0,3,0,0,2,3,9.004627e-01,0,1,Left,Left,Left,Vertical,Target primed,Left,None,Main study,C
2,1,6,2,5.000000e-02,6.201600e-02,1.240320e+00,76,55,3.186375e-01,3.917213e-01,8.351726e-03,8.330989e-02,7.546041e-06,4.000000e-01,8,0,3,0,0,2,3,3.921378e-01,1,0,Right,Left,Left,Vertical,Target primed,Left,None,Main study,C
2,1,6,2,5.000000e-02,6.201600e-02,1.240320e+00,76,35,3.188084e-01,2.667191e-01,1.333505e-01,8.332468e-02,7.244293e-06,4.000000e-01,134,0,3,0,0,2,3,5.587694e-01,0,1,Left,Left,Left,Vertical,Target primed,Left,None,Main study,C
2,1,6,2,5.000000e-02,6.201600e-02,1.240320e+00,76,50,3.106547e-01,3.667144e-01,3.332239e-02,8.333857e-02,7.244293e-06,4.000000e-01,34,1,3,1,1,2,3,3.837909e-01,1,1,Right,Right,Right,Vertical,Target primed,Right,None,Main study,C
2,1,6,2,5.000000e-02,6.201600e-02,1.240320e+00,76,35,3.106480e-01,3.666386e-01,3.338064e-02,8.333675e-02,7.244293e-06,4.000000e-01,34,1,3,1,1,2,3,4.504616e-01,0,0,Left,Right,Right,Vertical,Target primed,Right,None,Main study,C
2,1,6,2,5.000000e-02,6.201600e-02,1.240320e+00,76,55,3.106849e-01,2.666890e-01,1.333490e-01,8.336905e-02,7.244060e-06,4.000000e-01,134,1,2,0,0,2,3,4.087299e-01,0,1,Left,Right,Left,Vertical,Foil primed,Left,None,Main study,C
2,1,6,2,5.000000e-02,6.201600e-02,1.240320e+00,76,50,3.106432e-01,2.666636e-01,1.334353e-01,8.329359e-02,9.356998e-06,4.000000e-01,134,1,3,1,1,2,3,7.504150e-01,0,0,Left,Right,Right,Vertical,Target primed,Right,None,Main study,C
2,1,6,2,5.000000e-02,6.201600e-02,1.240320e+00,76,45,3.188262e-01,3.666760e-01,3.331846e-02,8.333736e-02,7.546041e-06,4.000000e-01,34,0,3,0,0,2,3,5.588177e-01,1,0,Right,Left,Left,Vertical,Target primed,Left,None,Main study,C
2,1,6,2,5.000000e-02,6.201600e-02,1.240320e+00,76,45,3.187800e-01,2.667662e-01,1.333451e-01,8.332528e-02,7.546041e-06,4.000000e-01,134,1,3,1,1,2,3,6.171297e-01,0,0,Left,Right,Right,Vertical,Target primed,Right,None,Main study,C
2,1,6,2,5.000000e-02,6.201600e-02,1.240320e+00,76,45,3.186967e-01,2.666715e-01,1.333384e-01,8.333675e-02,7.244293e-06,4.000000e-01,134,0,2,1,1,2,3,3.922824e-01,1,1,Right,Left,Right,Vertical,Foil primed,Right,None,Main study,C
2,1,6,2,5.000000e-02,6.201600e-02,1.240320e+00,76,50,3.106287e-01,3.916536e-01,8.329691e-03,8.335517e-02,7.848023e-06,4.000000e-01,8,0,3,0,0,2,3,4.338267e-01,0,1,Left,Left,Left,Vertical,Target primed,Left,None,Main study,C
2,1,6,2,5.000000e-02,6.201600e-02,1.240320e+00,76,40,3.108153e-01,2.667031e-01,1.333517e-01,8.333374e-02,7.244293e-06,4.000000e-01,134,1,2,0,0,2,3,4.337697e-01,0,1,Left,Right,Left,Vertical,Foil primed,Left,None,Main study,C
2,1,6,2,5.000000e-02,6.201600e-02,1.240320e+00,76,45,3.106408e-01,2.666875e-01,1.333514e-01,8.334068e-02,7.244293e-06,4.000000e-01,134,1,3,1,1,2,3,7.337813e-01,1,1,Right,Right,Right,Vertical,Target primed,Right,None,Main study,C
2,1,6,2,5.000000e-02,6.201600e-02,1.240320e+00,76,50,3.189337e-01,3.666769e-01,3.333808e-02,8.333675e-02,7.244293e-06,4.000000e-01,34,0,2,1,1,2,3,4.837674e-01,1,1,Right,Left,Right,Vertical,Foil primed,Right,None,Main study,C
2,1,6,2,5.000000e-02,6.201600e-02,1.240320e+00,76,50,3.188473e-01,3.916841e-01,8.365611e-03,8.331774e-02,7.244293e-06,4.000000e-01,8,0,3,0,0,2,3,5.170980e-01,0,1,Left,Left,Left,Vertical,Target primed,Left,None,Main study,C
2,1,6,2,5.000000e-02,6.201600e-02,1.240320e+00,76,40,3.189143e-01,3.917107e-01,8.336633e-03,8.336030e-02,7.244293e-06,4.000000e-01,8,0,3,0,0,2,3,3.587237e-01,0,1,Left,Left,Left,Vertical,Target primed,Left,None,Main study,C
2,1,6,2,5.000000e-02,6.201600e-02,1.240320e+00,76,45,3.189629e-01,3.916699e-01,8.334521e-03,8.334219e-02,7.546041e-06,4.000000e-01,8,0,3,0,0,2,3,3.837891e-01,0,1,Left,Left,Left,Vertical,Target primed,Left,None,Main study,C
2,1,6,2,5.000000e-02,6.201600e-02,1.240320e+00,76,40,3.107153e-01,3.666779e-01,3.333657e-02,8.339078e-02,7.546041e-06,4.000000e-01,34,0,3,0,0,2,3,4.087272e-01,0,1,Left,Left,Left,Vertical,Target primed,Left,None,Main study,C
2,1,6,2,5.000000e-02,6.201600e-02,1.240320e+00,76,50,3.189481e-01,2.666875e-01,1.333514e-01,8.335637e-02,7.244293e-06,4.000000e-01,134,1,3,1,1,2,3,7.587767e-01,0,0,Left,Right,Right,Vertical,Target primed,Right,None,Main study,C
2,1,6,2,5.000000e-02,6.201600e-02,1.240320e+00,76,40,3.187679e-01,3.666929e-01,3.333174e-02,8.335245e-02,7.847790e-06,4.000000e-01,34,0,3,0,0,2,3,7.004447e-01,1,0,Right,Left,Left,Vertical,Target primed,Left,None,Main study,C
2,1,6,2,5.000000e-02,6.201600e-02,1.240320e+00,76,35,3.189041e-01,2.666515e-01,1.333451e-01,8.334611e-02,7.244293e-06,4.000000e-01,134,0,2,1,1,2,3,3.921327e-01,1,1,Right,Left,Right,Vertical,Foil primed,Right,None,Main study,C
2,1,6,2,5.000000e-02,6.201600e-02,1.240320e+00,76,50,3.106876e-01,2.666485e-01,1.333466e-01,8.333857e-02,7.244293e-06,4.000000e-01,134,1,3,1,1,2,3,3.504552e-01,0,0,Left,Right,Right,Vertical,Target primed,Right,None,Main study,C
2,1,6,2,5.000000e-02,6.201600e-02,1.240320e+00,76,45,3.188431e-01,3.916642e-01,8.351122e-03,8.334671e-02,7.546274e-06,4.000000e-01,8,0,2,1,1,2,3,3.755400e-01,1,1,Right,Left,Right,Vertical,Foil primed,Right,None,Main study,C
2,1,6,2,5.000000e-02,6.201600e-02,1.240320e+00,76,40,3.103604e-01,2.666796e-01,1.333590e-01,8.334460e-02,6.942544e-06,4.000000e-01,134,1,2,0,0,2,3,5.087870e-01,0,1,Left,Right,Left,Vertical,Foil primed,Left,None,Main study,C
2,1,6,2,5.000000e-02,6.201600e-02,1.240320e+00,76,35,3.189340e-01,2.666881e-01,1.333493e-01,8.335215e-02,7.244293e-06,4.000000e-01,134,0,2,1,1,2,3,6.087439e-01,1,1,Right,Left,Right,Vertical,Foil primed,Right,None,Main study,C
2,1,6,2,5.000000e-02,6.201600e-02,1.240320e+00,76,35,3.187930e-01,2.666772e-01,1.333593e-01,8.331955e-02,7.244293e-06,4.000000e-01,134,1,2,0,0,2,3,5.087785e-01,0,1,Left,Right,Left,Vertical,Foil primed,Left,None,Main study,C
2,1,6,2,5.000000e-02,6.201600e-02,1.240320e+00,76,50,3.188781e-01,3.667129e-01,3.334231e-02,8.333132e-02,7.244293e-06,4.000000e-01,34,1,3,1,1,2,3,4.337639e-01,1,1,Right,Right,Right,Vertical,Target primed,Right,None,Main study,C
2,1,6,2,5.000000e-02,6.201600e-02,1.240320e+00,76,55,3.106414e-01,3.666534e-01,3.333657e-02,8.335275e-02,6.942544e-06,4.000000e-01,34,0,3,0,0,2,3,6.004755e-01,1,0,Right,Left,Left,Vertical,Target primed,Left,None,Main study,C
2,1,6,2,5.000000e-02,6.201600e-02,1.240320e+00,76,35,3.188836e-01,2.666543e-01,1.333780e-01,8.333796e-02,7.546274e-06,4.000000e-01,134,0,2,1,1,2,3,4.170970e-01,1,1,Right,Left,Right,Vertical,Foil primed,Right,None,Main study,C
2,1,6,2,5.000000e-02,6.201600e-02,1.240320e+00,76,35,3.106520e-01,2.666890e-01,1.333490e-01,8.332468e-02,7.546041e-06,4.000000e-01,134,0,2,1,1,2,3,4.087715e-01,1,1,Right,Left,Right,Vertical,Foil primed,Right,None,Main study,C
2,1,6,2,5.000000e-02,6.201600e-02,1.240320e+00,76,35,3.103604e-01,3.917919e-01,8.243666e-03,8.339199e-02,7.244293e-06,4.000000e-01,8,1,2,0,0,2,3,4.920805e-01,0,1,Left,Right,Left,Vertical,Foil primed,Left,None,Main study,C
2,1,6,2,5.000000e-02,6.201600e-02,1.240320e+00,76,55,3.189931e-01,3.666453e-01,3.333657e-02,8.342972e-02,9.055249e-06,4.000000e-01,34,1,2,0,0,2,3,5.087055e-01,0,1,Left,Right,Left,Vertical,Foil primed,Left,None,Main study,C
2,1,6,2,5.000000e-02,6.201600e-02,1.240320e+00,76,55,3.107630e-01,2.666690e-01,1.332681e-01,8.341765e-02,6.942544e-06,4.000000e-01,134,1,3,1,1,2,3,4.921424e-01,1,1,Right,Right,Right,Vertical,Target primed,Right,None,Main study,C
2,1,6,2,5.000000e-02,6.201600e-02,1.240320e+00,76,35,3.188676e-01,2.666856e-01,1.333351e-01,8.331653e-02,7.546274e-06,4.000000e-01,134,0,2,1,1,2,3,4.004452e-01,1,1,Right,Left,Right,Vertical,Foil primed,Right,None,Main study,C
2,1,6,2,5.000000e-02,6.201600e-02,1.240320e+00,76,50,3.189149e-01,2.666570e-01,1.333789e-01,8.331623e-02,7.546041e-06,4.000000e-01,134,0,3,0,0,2,3,6.588225e-01,0,1,Left,Left,Left,Vertical,Target primed,Left,None,Main study,C
2,1,6,2,5.000000e-02,6.201600e-02,1.240320e+00,76,40,3.188359e-01,2.666829e-01,1.333560e-01,8.333796e-02,7.244293e-06,4.000000e-01,134,0,2,1,1,2,3,4.253947e-01,1,1,Right,Left,Right,Vertical,Foil primed,Right,None,Main study,C
2,1,6,2,5.000000e-02,6.201600e-02,1.240320e+00,76,45,3.107428e-01,3.666875e-01,3.335800e-02,8.331019e-02,7.244293e-06,4.000000e-01,34,1,2,0,0,2,3,4.004301e-01,0,1,Left,Right,Left,Vertical,Foil primed,Left,None,Main study,C
2,1,6,2,5.000000e-02,6.201600e-02,1.240320e+00,76,45,3.109514e-01,3.916805e-01,8.354442e-03,8.333706e-02,7.244293e-06,4.000000e-01,8,1,3,1,1,2,3,3.920599e-01,1,1,Right,Right,Right,Vertical,Target primed,Right,None,Main study,C
2,1,6,2,5.000000e-02,6.201600e-02,1.240320e+00,76,40,3.106372e-01,3.917400e-01,8.346896e-03,8.332981e-02,1.629954e-05,4.000000e-01,8,1,2,0,0,2,3,4.337431e-01,0,1,Left,Right,Left,Vertical,Foil primed,Left,None,Main study,C
2,1,6,2,5.000000e-02,6.201600e-02,1.240320e+00,76,40,3.189186e-01,3.667325e-01,3.333748e-02,8.333766e-02,7.244293e-06,4.000000e-01,34,0,2,1,1,2,3,3.587285e-01,1,1,Right,Left,Right,Vertical,Foil primed,Right,None,Main study,C
2,1,7,2,5.000000e-02,6.201600e-02,1.240320e+00,76,50,3.172636e-01,3.666869e-01,3.334744e-02,8.332438e-02,6.942544e-06,4.000000e-01,34,0,2,1,1,2,3,4.169168e-01,1,1,Right,Left,Right,Vertical,Foil primed,Right,None,Main study,C
2,1,7,2,5.000000e-02,6.201600e-02,1.240320e+00,76,45,3.106411e-01,2.667001e-01,1.333587e-01,8.333102e-02,7.546041e-06,4.000000e-01,134,1,3,1,1,2,3,5.087770e-01,1,1,Right,Right,Right,Vertical,Target primed,Right,None,Main study,C
2,1,7,2,5.000000e-02,6.201600e-02,1.240320e+00,76,35,3.187701e-01,2.666962e-01,1.333418e-01,8.333585e-02,7.244293e-06,4.000000e-01,134,1,2,0,0,2,3,3.504223e-01,0,1,Left,Right,Left,Vertical,Foil primed,Left,None,Main study,C
2,1,7,2,5.000000e-02,6.201600e-02,1.240320e+00,76,40,3.107377e-01,3.916823e-01,8.366818e-03,8.333525e-02,7.244293e-06,4.000000e-01,8,0,2,1,1,2,3,5.004220e-01,0,0,Left,Left,Right,Vertical,Foil primed,Right,None,Main study,C
2,1,7,2,5.000000e-02,6.201600e-02,1.240320e+00,76,35,3.106692e-01,3.666993e-01,3.333869e-02,8.333525e-02,7.244293e-06,4.000000e-01,34,0,3,0,0,2,3,4.754341e-01,0,1,Left,Left,Left,Vertical,Target primed,Left,None,Main study,C
2,1,7,2,5.000000e-02,6.201600e-02,1.240320e+00,76,50,3.189297e-01,3.666721e-01,3.333929e-02,8.333796e-02,7.546041e-06,4.000000e-01,34,1,2,0,0,2,3,3.921031e-01,1,0,Right,Right,Left,Vertical,Foil primed,Left,None,Main study,C
2,1,7,2,5.000000e-02,6.201600e-02,1.240320e+00,76,50,3.106547e-01,3.667615e-01,3.330941e-02,8.333736e-02,7.244060e-06,4.000000e-01,34,0,3,0,0,2,3,1.133830e+00,0,1,Left,Left,Left,Vertical,Target primed,Left,None,Main study,C
2,1,7,2,5.000000e-02,6.201600e-02,1.240320e+00,76,50,3.185977e-01,3.916905e-01,8.337539e-03,8.333857e-02,7.546041e-06,4.000000e-01,8,0,2,1,1,2,3,3.754084e-01,1,1,Right,Left,Right,Vertical,Foil primed,Right,None,Main study,C
2,1,7,2,5.000000e-02,6.201600e-02,1.240320e+00,76,35,3.189572e-01,3.667165e-01,3.332027e-02,8.332589e-02,7.546041e-06,4.000000e-01,34,1,2,0,0,2,3,3.921064e-01,0,1,Left,Right,Left,Vertical,Foil primed,Left,None,Main study,C
2,1,7,2,5.000000e-02,6.201600e-02,1.240320e+00,76,35,3.106743e-01,3.667518e-01,3.331635e-02,8.333675e-02,7.244293e-06,4.000000e-01,34,0,2,1,1,2,3,3.504287e-01,1,1,Right,Left,Right,Vertical,Foil primed,Right,None,Main study,C
2,1,7,2,5.000000e-02,6.201600e-02,1.240320e+00,76,55,3.107688e-01,3.916343e-01,8.388551e-03,8.331593e-02,7.244293e-06,4.000000e-01,8,0,3,0,0,2,3,3.337630e-01,0,1,Left,Left,Left,Vertical,Target primed,Left,None,Main study,C
2,1,7,2,5.000000e-02,6.201600e-02,1.240320e+00,76,45,3.172252e-01,3.916464e-01,8.346594e-03,8.332468e-02,7.244293e-06,4.000000e-01,8,0,3,0,0,2,3,4.420867e-01,0,1,Left,Left,Left,Vertical,Target primed,Left,None,Main study,C
2,1,7,2,5.000000e-02,6.201600e-02,1.240320e+00,76,55,3.189693e-01,3.916998e-01,8.337841e-03,8.332830e-02,7.244293e-06,4.000000e-01,8,1,2,0,0,2,3,3.254405e-01,1,0,Right,Right,Left,Vertical,Foil primed,Left,None,Main study,C
2,1,7,2,5.000000e-02,6.201600e-02,1.240320e+00,76,40,3.106544e-01,3.917086e-01,8.336935e-03,8.328061e-02,7.244293e-06,4.000000e-01,8,0,3,0,0,2,3,3.505573e-01,1,0,Right,Left,Left,Vertical,Target primed,Left,None,Main study,C
2,1,7,2,5.000000e-02,6.201600e-02,1.240320e+00,76,40,3.103761e-01,3.667144e-01,3.332540e-02,8.334792e-02,6.942311e-06,4.000000e-01,34,0,3,0,0,2,3,3.921097e-01,0,1,Left,Left,Left,Vertical,Target primed,Left,None,Main study,C
2,1,7,2,5.000000e-02,6.201600e-02,1.240320e+00,76,40,3.106960e-01,3.917131e-01,8.312486e-03,8.339350e-02,7.244293e-06,4.000000e-01,8,1,2,0,0,2,3,9.671156e-01,0,1,Left,Right,Left,Vertical,Foil primed,Left,None,Main study,C
2,1,7,2,5.000000e-02,6.201600e-02,1.240320e+00,76,55,3.187097e-01,2.666872e-01,1.333487e-01,8.333736e-02,7.244293e-06,4.000000e-01,134,0,2,1,1,2,3,3.837589e-01,1,1,Right,Left,Right,Vertical,Foil primed,Right,None,Main study,C
2,1,7,2,5.000000e-02,6.201600e-02,1.240320e+00,76,45,3.107117e-01,3.916811e-01,8.339954e-03,8.333162e-02,7.244060e-06,4.000000e-01,8,1,2,0,0,2,3,5.671175e-01,0,1,Left,Right,Left,Vertical,Foil primed,Left,None,Main study,C
2,1,7,2,5.000000e-02,6.201600e-02,1.240320e+00,76,35,3.187513e-01,3.667020e-01,3.334080e-02,8.336875e-02,7.244293e-06,4.000000e-01,34,1,3,1,1,2,3,4.837288e-01,0,0,Left,Right,Right,Vertical,Target primed,Right,None,Main study,C
2,1,7,2,5.000000e-02,6.201600e-02,1.240320e+00,76,35,3.107322e-01,3.916600e-01,8.318523e-03,8.333706e-02,7.244293e-06,4.000000e-01,8,1,2,0,0,2,3,7.921643e-01,0,1,Left,Right,Left,Vertical,Foil primed,Left,None,Main study,C
2,1,7,2,5.000000e-02,6.201600e-02,1.240320e+00,76,35,3.188132e-01,2.666597e-01,1.333958e-01,8.329329e-02,7.244293e-06,4.000000e-01,134,0,3,0,0,2,3,3.837580e-01,1,0,Right,Left,Left,Vertical,Target primed,Left,None,Main study,C
2,1,7,2,5.000000e-02,6.201600e-02,1.240320e+00,76,35,3.107000e-01,2.666968e-01,1.333046e-01,8.336392e-02,7.244060e-06,4.000000e-01,134,1,2,0,0,2,3,5.004621e-01,0,1,Left,Right,Left,Vertical,Foil primed,Left,None,Main study,C
2,1,7,2,5.000000e-02,6.201600e-02,1.240320e+00,76,55,3.106477e-01,3.916938e-01,8.336030e-03,8.333675e-02,6.942311e-06,4.000000e-01,8,0,2,1,1,2,3,3.837680e-01,1,1,Right,Left,Right,Vertical,Foil primed,Right,None,Main study,C
2,1,7,2,5.000000e-02,6.201600e-02,1.240320e+00,76,35,3.107799e-01,3.916712e-01,8.349613e-03,8.331321e-02,7.244293e-06,4.000000e-01,8,1,3,1,1,2,3,9.421661e-01,0,0,Left,Right,Right,Vertical,Target primed,Right,None,Main study,C
2,1,7,2,5.000000e-02,6.201600e-02,1.240320e+00,76,45,3.187359e-01,3.666996e-01,3.334684e-02,8.333766e-02,7.244293e-06,4.000000e-01,34,0,2,1,1,2,3,4.004080e-01,1,1,Right,Left,Right,Vertical,Foil primed,Right,None,Main study,C
2,1,7,2,5.000000e-02,6.201600e-02,1.240320e+00,76,50,3.108134e-01,2.666905e-01,1.333593e-01,8.332468e-02,7.546041e-06,4.000000e-01,134,1,2,0,0,2,3,4.004916e-01,0,1,Left,Right,Left,Vertical,Foil primed,Left,None,Main study,C
2,1,7,2,5.000000e-02,6.201600e-02,1.240320e+00,76,45,3.106993e-01,3.666993e-01,3.333778e-02,8.333796e-02,7.244293e-06,4.000000e-01,34,0,3,0,0,2,3,6.587456e-01,1,0,Right,Left,Left,Vertical,Target primed,Left,None,Main study,C
2,1,7,2,5.000000e-02,6.201600e-02,1.240320e+00,76,55,3.188968e-01,3.666984e-01,3.334080e-02,8.334098e-02,7.546274e-06,4.000000e-01,34,1,3,1,1,2,3,4.004180e-01,1,1,Right,Right,Right,Vertical,Target primed,Right,None,Main study,C
2,1,7,2,5.000000e-02,6.201600e-02,1.240320e+00,76,40,3.107120e-01,3.916392e-01,8.333313e-03,8.331532e-02,7.546041e-06,4.000000e-01,8,1,3,1,1,2,3,3.921653e-01,1,1,Right,Right,Right,Vertical,Target primed,Right,None,Main study,C
2,1,7,2,5.000000e-02,6.201600e-02,1.240320e+00,76,50,3.106396e-01,3.916736e-01,8.334822e-03,8.341825e-02,9.357231e-06,4.000000e-01,8,1,3,1,1,2,3,4.671032e-01,1,1,Right,Right,Right,Vertical,Target primed,Right,None,Main study,C
2,1,7,2,5.000000e-02,6.201600e-02,1.240320e+00,76,45,3.106360e-01,3.916983e-01,8.317617e-03,8.329872e-02,7.244293e-06,4.000000e-01,8,1,3,1,1,2,3,3.838256e-01,1,1,Right,Right,Right,Vertical,Target primed,Right,None,Main study,C
2,1,7,2,5.000000e-02,6.201600e-02,1.240320e+00,76,35,3.107253e-01,2.667025e-01,1.333345e-01,8.330717e-02,7.244293e-06,4.000000e-01,134,1,2,0,0,2,3,4.088044e-01,0,1,Left,Right,Left,Vertical,Foil primed,Left,None,Main study,C
2,1,7,2,5.000000e-02,6.201600e-02,1.240320e+00,76,40,3.106492e-01,2.667303e-01,1.333674e-01,8.330687e-02,7.244293e-06,4.000000e-01,134,1,2,0,0,2,3,6.088006e-01,0,1,Left,Right,Left,Vertical,Foil primed,Left,None,Main study,C
2,1,7,2,5.000000e-02,6.201600e-02,1.240320e+00,76,50,3.186708e-01,3.668436e-01,3.326141e-02,8.330989e-02,7.546041e-06,4.000000e-01,34,0,2,1,1,2,3,4.254213e-01,1,1,Right,Left,Right,Vertical,Foil primed,Right,None,Main study,C
2,1,7,2,5.000000e-02,6.201600e-02,1.240320e+00,76,40,3.107160e-01,3.916494e-01,8.352933e-03,8.339260e-02,7.244293e-06,4.000000e-01,8,0,3,0,0,2,3,3.504097e-01,0,1,Left,Left,Left,Vertical,Target primed,Left,None,Main study,C
2,1,7,2,5.000000e-02,6.201600e-02,1.240320e+00,76,35,3.107627e-01,3.666984e-01,3.333778e-02,8.333857e-02,6.942544e-06,4.000000e-01,34,1,3,1,1,2,3,4.754595e-01,0,0,Left,Right,Right,Vertical,Target primed,Right,None,Main study,C
2,1,7,2,5.000000e-02,6.201600e-02,1.240320e+00,76,35,3.189116e-01,2.666467e-01,1.333234e-01,8.336301e-02,7.244293e-06,4.000000e-01,134,1,3,1,1,2,3,1.025493e+00,0,0,Left,Right,Right,Vertical,Target primed,Right,None,Main study,C
2,1,7,2,5.000000e-02,6.201600e-02,1.240320e+00,76,40,3.185361e-01,3.917038e-01,8.353235e-03,8.327880e-02,7.244060e-06,4.000000e-01,8,0,3,0,0,2,3,3.587952e-01,0,1,Left,Left,Left,Vertical,Target primed,Left,None,Main study,C
2,1,7,2,5.000000e-02,6.201600e-02,1.240320e+00,76,40,3.107301e-01,3.667352e-01,3.331303e-02,8.333162e-02,8.150004e-06,4.000000e-01,34,0,3,0,0,2,3,4.921258e-01,0,1,Left,Left,Left,Vertical,Target primed,Left,None,Main study,C
2,1,7,2,5.000000e-02,6.201600e-02,1.240320e+00,76,45,3.105943e-01,3.667041e-01,3.333295e-02,8.333736e-02,7.244060e-06,4.000000e-01,34,0,2,1,1,2,3,6.088387e-01,1,1,Right,Left,Right,Vertical,Foil primed,Right,None,Main study,C
2,1,7,2,5.000000e-02,6.201600e-02,1.240320e+00,76,40,3.186022e-01,3.917303e-01,8.335728e-03,8.333766e-02,7.244293e-06,4.000000e-01,8,0,3,0,0,2,3,3.587333e-01,0,1,Left,Left,Left,Vertical,Target primed,Left,None,Main study,C
2,1,7,2,5.000000e-02,6.201600e-02,1.240320e+00,76,45,3.108599e-01,2.666745e-01,1.332938e-01,8.337328e-02,7.244293e-06,4.000000e-01,134,0,2,1,1,2,3,3.754621e-01,1,1,Right,Left,Right,Vertical,Foil primed,Right,None,Main study,C
2,1,7,2,5.000000e-02,6.201600e-02,1.240320e+00,76,40,3.108083e-01,3.666978e-01,3.333929e-02,8.337237e-02,1.629954e-05,4.000000e-01,34,1,2,0,0,2,3,3.670470e-01,0,1,Left,Right,Left,Vertical,Foil primed,Left,None,Main study,C
2,1,7,2,5.000000e-02,6.201600e-02,1.240320e+00,76,45,3.108530e-01,3.666733e-01,3.333144e-02,8.332649e-02,7.244060e-06,4.000000e-01,34,0,3,0,0,2,3,8.505075e-01,0,1,Left,Left,Left,Vertical,Target primed,Left,None,Main study,C
2,1,7,2,5.000000e-02,6.201600e-02,1.240320e+00,76,35,3.186548e-01,3.666972e-01,3.333989e-02,8.333042e-02,7.244293e-06,4.000000e-01,34,1,2,0,0,2,3,4.421045e-01,0,1,Left,Right,Left,Vertical,Foil primed,Left,None,Main study,C
2,1,7,2,5.000000e-02,6.201600e-02,1.240320e+00,76,35,3.188739e-01,2.667249e-01,1.333813e-01,8.332438e-02,7.244293e-06,4.000000e-01,134,1,3,1,1,2,3,4.171233e-01,0,0,Left,Right,Right,Vertical,Target primed,Right,None,Main study,C
2,1,7,2,5.000000e-02,6.201600e-02,1.240320e+00,76,35,3.188543e-01,3.917010e-01,8.334219e-03,8.334853e-02,7.244293e-06,4.000000e-01,8,0,3,0,0,2,3,3.420791e-01,0,1,Left,Left,Left,Vertical,Target primed,Left,None,Main study,C
2,1,7,2,5.000000e-02,6.201600e-02,1.240320e+00,76,35,3.107833e-01,3.916835e-01,8.334521e-03,8.336935e-02,7.244293e-06,4.000000e-01,8,0,2,1,1,2,3,6.837826e-01,1,1,Right,Left,Right,Vertical,Foil primed,Right,None,Main study,C
2,1,7,2,5.000000e-02,6.201600e-02,1.240320e+00,76,55,3.188455e-01,2.666684e-01,1.333538e-01,8.333162e-02,7.546274e-06,4.000000e-01,134,0,2,1,1,2,3,4.087712e-01,1,1,Right,Left,Right,Vertical,Foil primed,Right,None,Main study,C
2,1,7,2,5.000000e-02,6.201600e-02,1.240320e+00,76,35,3.186641e-01,3.917267e-01,8.336935e-03,8.332528e-02,7.244293e-06,4.000000e-01,8,0,2,1,1,2,3,7.671547e-01,1,1,Right,Left,Right,Vertical,Foil primed,Right,None,Main study,C
2,1,7,2,5.000000e-02,6.201600e-02,1.240320e+00,76,45,3.188820e-01,3.666984e-01,3.333869e-02,8.335668e-02,7.244293e-06,4.000000e-01,34,1,3,1,1,2,3,7.671514e-01,1,1,Right,Right,Right,Vertical,Target primed,Right,None,Main study,C
2,1,7,2,5.000000e-02,6.201600e-02,1.240320e+00,76,50,3.187447e-01,3.666806e-01,3.334865e-02,8.333766e-02,7.244293e-06,4.000000e-01,34,0,3,0,0,2,3,3.337415e-01,0,1,Left,Left,Left,Vertical,Target primed,Left,None,Main study,C
2,1,7,2,5.000000e-02,6.201600e-02,1.240320e+00,76,35,3.107531e-01,2.666482e-01,1.334036e-01,8.331230e-02,7.244293e-06,4.000000e-01,134,1,3,1,1,2,3,5.421136e-01,0,0,Left,Right,Right,Vertical,Target primed,Right,None,Main study,C
2,1,7,2,5.000000e-02,6.201600e-02,1.240320e+00,76,50,3.188832e-01,3.667095e-01,3.332873e-02,8.332710e-02,7.546041e-06,4.000000e-01,34,0,3,0,0,2,3,5.337794e-01,0,1,Left,Left,Left,Vertical,Target primed,Left,None,Main study,C
2,1,7,2,5.000000e-02,6.201600e-02,1.240320e+00,76,50,3.107214e-01,2.666923e-01,1.333276e-01,8.332679e-02,7.546041e-06,4.000000e-01,134,0,3,0,0,2,3,4.088032e-01,1,0,Right,Left,Left,Vertical,Target primed,Left,None,Main study,C
2,1,7,2,5.000000e-02,6.201600e-02,1.240320e+00,76,40,3.189279e-01,3.667162e-01,3.332118e-02,8.333706e-02,7.244293e-06,4.000000e-01,34,0,2,1,1,2,3,4.254037e-01,1,1,Right,Left,Right,Vertical,Foil primed,Right,None,Main study,C
2,1,7,2,5.000000e-02,6.201600e-02,1.240320e+00,76,35,3.106317e-01,2.666730e-01,1.333258e-01,8.335909e-02,7.244293e-06,4.000000e-01,134,1,3,1,1,2,3,4.921702e-01,0,0,Left,Right,Right,Vertical,Target primed,Right,None,Main study,C
2,1,7,2,5.000000e-02,6.201600e-02,1.240320e+00,76,40,3.189491e-01,3.917019e-01,8.336030e-03,8.336422e-02,7.244293e-06,4.000000e-01,8,1,2,0,0,2,3,4.087353e-01,0,1,Left,Right,Left,Vertical,Foil primed,Left,None,Main study,C
2,1,7,2,5.000000e-02,6.201600e-02,1.240320e+00,76,50,3.106776e-01,2.666727e-01,1.333541e-01,8.333736e-02,9.357231e-06,4.000000e-01,134,1,2,0,0,2,3,4.671129e-01,0,1,Left,Right,Left,Vertical,Foil primed,Left,None,Main study,C
2,1,7,2,5.000000e-02,6.201600e-02,1.240320e+00,76,40,3.188736e-01,3.916953e-01,8.363196e-03,8.331925e-02,7.546041e-06,4.000000e-01,8,1,2,0,0,2,3,5.254506e-01,0,1,Left,Right,Left,Vertical,Foil primed,Left,None,Main study,C
2,1,8,2,5.000000e-02,6.201600e-02,1.240320e+00,76,50,3.184987e-01,3.666344e-01,3.339543e-02,8.333253e-02,7.546274e-06,4.000000e-01,34,0,3,0,0,2,3,8.834700e-01,1,0,Right,Left,Left,Vertical,Target primed,Left,None,Main study,C
2,1,8,2,5.000000e-02,6.201600e-02,1.240320e+00,76,35,3.188174e-01,2.666875e-01,1.333270e-01,8.335366e-02,7.546041e-06,4.000000e-01,134,0,2,1,1,2,3,4.671189e-01,1,1,Right,Left,Right,Vertical,Foil primed,Right,None,Main study,C
2,1,8,2,5.000000e-02,6.201600e-02,1.240320e+00,76,50,3.187320e-01,3.666978e-01,3.334925e-02,8.333374e-02,7.244293e-06,4.000000e-01,34,1,2,0,0,2,3,4.754232e-01,0,1,Left,Right,Left,Vertical,Foil primed,Left,None,Main study,C
2,1,8,2,5.000000e-02,6.201600e-02,1.240320e+00,76,40,3.187393e-01,2.667050e-01,1.333807e-01,8.332649e-02,7.546041e-06,4.000000e-01,134,0,3,0,0,2,3,4.921074e-01,1,0,Right,Left,Left,Vertical,Target primed,Left,None,Main study,C
2,1,8,2,5.000000e-02,6.201600e-02,1.240320e+00,76,40,3.188688e-01,3.916060e-01,8.385834e-03,8.335607e-02,7.244293e-06,4.000000e-01,8,0,3,0,0,2,3,3.337506e-01,0,1,Left,Left,Left,Vertical,Target primed,Left,None,Main study,C
2,1,8,2,5.000000e-02,6.201600e-02,1.240320e+00,76,35,3.108463e-01,3.916416e-01,8.321239e-03,8.338535e-02,7.546041e-06,4.000000e-01,8,1,3,1,1,2,3,5.504342e-01,1,1,Right,Right,Right,Vertical,Target primed,Right,None,Main study,C
2,1,8,2,5.000000e-02,6.201600e-02,1.240320e+00,76,35,3.188259e-01,3.667956e-01,3.329492e-02,8.330234e-02,7.546274e-06,4.000000e-01,34,1,2,0,0,2,3,4.671382e-01,0,1,Left,Right,Left,Vertical,Foil primed,Left,None,Main study,C
2,1,8,2,5.000000e-02,6.201600e-02,1.240320e+00,76,35,3.107045e-01,3.916693e-01,8.336935e-03,8.330627e-02,7.546274e-06,4.000000e-01,8,0,2,1,1,2,3,8.255283e-01,0,0,Left,Left,Right,Vertical,Foil primed,Right,None,Main study,C
2,1,8,2,5.000000e-02,6.201600e-02,1.240320e+00,76,40,3.187142e-01,2.666983e-01,1.333490e-01,8.337298e-02,7.244293e-06,4.000000e-01,134,0,3,0,0,2,3,3.420486e-01,1,0,Right,Left,Left,Vertical,Target primed,Left,None,Main study,C
2,1,8,2,5.000000e-02,6.201600e-02,1.240320e+00,76,45,3.188531e-01,3.917194e-01,8.317919e-03,8.332649e-02,7.546041e-06,4.000000e-01,8,0,2,1,1,2,3,4.504236e-01,1,1,Right,Left,Right,Vertical,Foil primed,Right,None,Main study,C
2,1,8,2,5.000000e-02,6.201600e-02,1.240320e+00,76,35,3.106671e-01,2.667022e-01,1.333381e-01,8.331834e-02,7.546274e-06,4.000000e-01,134,1,3,1,1,2,3,4.838018e-01,0,0,Left,Right,Right,Vertical,Target primed,Right,None,Main study,C
2,1,8,2,5.000000e-02,6.201600e-02,1.240320e+00,76,55,3.189539e-01,2.666887e-01,1.333288e-01,8.332498e-02,7.244293e-06,4.000000e-01,134,0,2,1,1,2,3,3.671222e-01,1,1,Right,Left,Right,Vertical,Foil primed,Right,None,Main study,C
2,1,8,2,5.000000e-02,6.201600e-02,1.240320e+00,76,40,3.107108e-01,2.666715e-01,1.333409e-01,8.334551e-02,7.244293e-06,4.000000e-01,134,0,2,1,1,2,3,5.837841e-01,1,1,Right,Left,Right,Vertical,Foil primed,Right,None,Main study,C
2,1,8,2,5.000000e-02,6.201600e-02,1.240320e+00,76,55,3.188344e-01,3.666975e-01,3.333929e-02,8.333706e-02,6.942311e-06,4.000000e-01,34,1,2,0,0,2,3,5.838185e-01,0,1,Left,Right,Left,Vertical,Foil primed,Left,None,Main study,C
2,1,8,2,5.000000e-02,6.201600e-02,1.240320e+00,76,45,3.107132e-01,2.666032e-01,1.333907e-01,8.332528e-02,7.546041e-06,4.000000e-01,134,1,3,1,1,2,3,6.005041e-01,0,0,Left,Right,Right,Vertical,Target primed,Right,None,Main study,C
2,1,8,2,5.000000e-02,6.201600e-02,1.240320e+00,76,35,3.188440e-01,3.917327e-01,8.336633e-03,8.329510e-02,7.244293e-06,4.000000e-01,8,0,3,0,0,2,3,3.921336e-01,0,1,Left,Left,Left,Vertical,Target primed,Left,None,Main study,C
2,1,8,2,5.000000e-02,6.201600e-02,1.240320e+00,76,55,3.106456e-01,2.666748e-01,1.333846e-01,8.331140e-02,7.244293e-06,4.000000e-01,134,0,3,0,0,2,3,3.837828e-01,1,0,Right,Left,Left,Vertical,Target primed,Left,None,Main study,C
2,1,8,2,5.000000e-02,6.201600e-02,1.240320e+00,76,55,3.106562e-01,3.666664e-01,3.333959e-02,8.336754e-02,6.942544e-06,4.000000e-01,34,0,2,1,1,2,3,3.921022e-01,1,1,Right,Left,Right,Vertical,Foil primed,Right,None,Main study,C
2,1,8,2,5.000000e-02,6.201600e-02,1.240320e+00,76,45,3.106824e-01,3.666800e-01,3.335076e-02,8.332408e-02,7.244060e-06,4.000000e-01,34,0,3,0,0,2,3,4.671059e-01,1,0,Right,Left,Left,Vertical,Target primed,Left,None,Main study,C
2,1,8,2,5.000000e-02,6.201600e-02,1.240320e+00,76,50,3.106296e-01,3.917119e-01,8.326673e-03,8.334490e-02,7.244293e-06,4.000000e-01,8,0,2,1,1,2,3,7.254564e-01,1,1,Right,Left,Right,Vertical,Foil primed,Right,None,Main study,C
2,1,8,2,5.000000e-02,6.201600e-02,1.240320e+00,76,50,3.189291e-01,2.666663e-01,1.333061e-01,8.338082e-02,7.244293e-06,4.000000e-01,134,1,2,0,0,2,3,3.837698e-01,0,1,Left,Right,Left,Vertical,Foil primed,Left,None,Main study,C
2,1,8,2,5.000000e-02,6.201600e-02,1.240320e+00,76,40,3.107244e-01,3.916485e-01,8.336633e-03,8.334068e-02,7.244293e-06,4.000000e-01,8,1,2,0,0,2,3,4.004518e-01,0,1,Left,Right,Left,Vertical,Foil primed,Left,None,Main study,C
2,1,8,2,5.000000e-02,6.201600e-02,1.240320e+00,76,55,3.107504e-01,2.666609e-01,1.333572e-01,8.332559e-02,7.244293e-06,4.000000e-01,134,0,2,1,1,2,3,5.421139e-01,1,1,Right,Left,Right,Vertical,Foil primed,Right,None,Main study,C
2,1,8,2,5.000000e-02,6.201600e-02,1.240320e+00,76,55,3.188217e-01,3.916941e-01,8.334822e-03,8.334279e-02,7.244293e-06,4.000000e-01,8,0,2,1,1,2,3,3.671385e-01,1,1,Right,Left,Right,Vertical,Foil primed,Right,None,Main study,C
2,1,8,2,5.000000e-02,6.201600e-02,1.240320e+00,76,40,3.106329e-01,3.916802e-01,8.336633e-03,8.330959e-02,7.546274e-06,4.000000e-01,8,0,2,1,1,2,3,1.008877e+00,0,0,Left,Left,Right,Vertical,Foil primed,Right,None,Main study,C
2,1,8,2,5.000000e-02,6.201600e-02,1.240320e+00,76,50,3.184987e-01,3.916642e-01,8.345085e-03,8.335939e-02,7.244293e-06,4.000000e-01,8,1,2,0,0,2,3,5.337573e-01,0,1,Left,Right,Left,Vertical,Foil primed,Left,None,Main study,C
2,1,8,2,5.000000e-02,6.201600e-02,1.240320e+00,76,40,3.189044e-01,3.917146e-01,8.322145e-03,8.333736e-02,7.244060e-06,4.000000e-01,8,0,2,1,1,2,3,3.837613e-01,1,1,Right,Left,Right,Vertical,Foil primed,Right,None,Main study,C
2,1,8,2,5.000000e-02,6.201600e-02,1.240320e+00,76,35,3.106598e-01,3.916935e-01,8.343878e-03,8.331895e-02,7.244293e-06,4.000000e-01,8,1,2,0,0,2,3,4.087679e-01,0,1,Left,Right,Left,Vertical,Foil primed,Left,None,Main study,C
2,1,8,2,5.000000e-02,6.201600e-02,1.240320e+00,76,35,3.107244e-01,3.666507e-01,3.335468e-02,8.336966e-02,7.244293e-06,4.000000e-01,34,1,2,0,0,2,3,3.921360e-01,0,1,Left,Right,Left,Vertical,Foil primed,Left,None,Main study,C
2,1,8,2,5.000000e-02,6.201600e-02,1.240320e+00,76,45,3.187836e-01,2.667207e-01,1.333264e-01,8.333706e-02,6.942311e-06,4.000000e-01,134,0,2,1,1,2,3,3.420905e-01,1,1,Right,Left,Right,Vertical,Foil primed,Right,None,Main study,C
2,1,8,2,5.000000e-02,6.201600e-02,1.240320e+00,76,40,3.105783e-01,2.667216e-01,1.333152e-01,8.333826e-02,7.546041e-06,4.000000e-01,134,1,2,0,0,2,3,3.253684e-01,0,1,Left,Right,Left,Vertical,Foil primed,Left,None,Main study,C
2,1,8,2,5.000000e-02,6.201600e-02,1.240320e+00,76,45,3.107636e-01,3.917502e-01,8.336935e-03,8.333736e-02,8.149771e-06,4.000000e-01,8,0,2,1,1,2,3,3.587297e-01,1,1,Right,Left,Right,Vertical,Foil primed,Right,None,Main study,C
2,1,8,2,5.000000e-02,6.201600e-02,1.240320e+00,76,40,3.107150e-01,2.666799e-01,1.333221e-01,8.337267e-02,7.244293e-06,4.000000e-01,134,0,2,1,1,2,3,5.588086e-01,1,1,Right,Left,Right,Vertical,Foil primed,Right,None,Main study,C
2,1,8,2,5.000000e-02,6.201600e-02,1.240320e+00,76,35,3.189430e-01,2.666138e-01,1.333541e-01,8.336151e-02,7.244293e-06,4.000000e-01,134,0,3,0,0,2,3,4.587747e-01,0,1,Left,Left,Left,Vertical,Target primed,Left,None,Main study,C
2,1,8,2,5.000000e-02,6.201600e-02,1.240320e+00,76,35,3.106586e-01,3.666766e-01,3.343014e-02,8.327578e-02,9.055249e-06,4.000000e-01,34,0,3,0,0,2,3,3.920922e-01,0,1,Left,Left,Left,Vertical,Target primed,Left,None,Main study,C
2,1,8,2,5.000000e-02,6.201600e-02,1.240320e+00,76,55,3.106275e-01,3.666736e-01,3.335136e-02,8.331351e-02,7.244293e-06,4.000000e-01,34,1,3,1,1,2,3,3.254136e-01,1,1,Right,Right,Right,Vertical,Target primed,Right,None,Main study,C
2,1,8,2,5.000000e-02,6.201600e-02,1.240320e+00,76,50,3.106927e-01,2.666718e-01,1.333469e-01,8.330083e-02,7.546041e-06,4.000000e-01,134,1,2,0,0,2,3,3.254269e-01,0,1,Left,Right,Left,Vertical,Foil primed,Left,None,Main study,C
2,1,8,2,5.000000e-02,6.201600e-02,1.240320e+00,76,40,3.106583e-01,3.916751e-01,8.326974e-03,8.336664e-02,7.244293e-06,4.000000e-01,8,0,2,1,1,2,3,6.171813e-01,1,1,Right,Left,Right,Vertical,Foil primed,Right,None,Main study,C
2,1,8,2,5.000000e-02,6.201600e-02,1.240320e+00,76,40,3.189349e-01,2.667068e-01,1.333312e-01,8.332468e-02,7.244293e-06,4.000000e-01,134,1,3,1,1,2,3,3.337608e-01,0,0,Left,Right,Right,Vertical,Target primed,Right,None,Main study,C
2,1,8,2,5.000000e-02,6.201600e-02,1.240320e+00,76,40,3.107135e-01,3.666990e-01,3.331544e-02,8.333947e-02,7.244060e-06,4.000000e-01,34,0,2,1,1,2,3,4.671204e-01,1,1,Right,Left,Right,Vertical,Foil primed,Right,None,Main study,C
2,1,8,2,5.000000e-02,6.201600e-02,1.240320e+00,76,35,3.169644e-01,3.916561e-01,8.347198e-03,8.334068e-02,7.244293e-06,4.000000e-01,8,0,2,1,1,2,3,5.337848e-01,1,1,Right,Left,Right,Vertical,Foil primed,Right,None,Main study,C
2,1,8,2,5.000000e-02,6.201600e-02,1.240320e+00,76,45,3.106420e-01,3.916699e-01,8.331804e-03,8.333615e-02,7.546041e-06,4.000000e-01,8,1,2,0,0,2,3,3.754531e-01,0,1,Left,Right,Left,Vertical,Foil primed,Left,None,Main study,C
2,1,8,2,5.000000e-02,6.201600e-02,1.240320e+00,76,55,3.106731e-01,3.666948e-01,3.334684e-02,8.331804e-02,7.546041e-06,4.000000e-01,34,1,3,1,1,2,3,3.754262e-01,1,1,Right,Right,Right,Vertical,Target primed,Right,None,Main study,C
2,1,8,2,5.000000e-02,6.201600e-02,1.240320e+00,76,55,3.106408e-01,3.667105e-01,3.332873e-02,8.335094e-02,7.546041e-06,4.000000e-01,34,0,3,0,0,2,3,4.420924e-01,1,0,Right,Left,Left,Vertical,Target primed,Left,None,Main study,C
2,1,8,2,5.000000e-02,6.201600e-02,1.240320e+00,76,50,3.188968e-01,3.916820e-01,8.341161e-03,8.334551e-02,6.942311e-06,4.000000e-01,8,1,3,1,1,2,3,4.421117e-01,1,1,Right,Right,Right,Vertical,Target primed,Right,None,Main study,C
2,1,8,2,5.000000e-02,6.201600e-02,1.240320e+00,76,55,3.186529e-01,2.667176e-01,1.333496e-01,8.333736e-02,7.244293e-06,4.000000e-01,134,0,3,0,0,2,3,6.420838e-01,0,1,Left,Left,Left,Vertical,Target primed,Left,None,Main study,C
2,1,8,2,5.000000e-02,6.201600e-02,1.240320e+00,76,45,3.189484e-01,3.916702e-01,8.345689e-03,8.332800e-02,7.244293e-06,4.000000e-01,8,1,3,1,1,2,3,5.171037e-01,1,1,Right,Right,Right,Vertical,Target primed,Right,None,Main study,C
2,1,8,2,5.000000e-02,6.201600e-02,1.240320e+00,76,45,3.188769e-01,2.667234e-01,1.333137e-01,8.333887e-02,7.546041e-06,4.000000e-01,134,0,2,1,1,2,3,4.087115e-01,1,1,Right,Left,Right,Vertical,Foil primed,Right,None,Main study,C
2,1,8,2,5.000000e-02,6.201600e-02,1.240320e+00,76,40,3.107277e-01,3.667189e-01,3.331967e-02,8.333736e-02,7.244293e-06,4.000000e-01,34,0,2,1,1,2,3,3.504900e-01,1,1,Right,Left,Right,Vertical,Foil primed,Right,None,Main study,C
2,1,8,2,5.000000e-02,6.201600e-02,1.240320e+00,76,35,3.107223e-01,3.666815e-01,3.335257e-02,8.333192e-02,7.546041e-06,4.000000e-01,34,0,3,0,0,2,3,2.837459e-01,0,1,Left,Left,Left,Vertical,Target primed,Left,None,Main study,C
2,1,8,2,5.000000e-02,6.201600e-02,1.240320e+00,76,55,3.190176e-01,2.666383e-01,1.333321e-01,8.337207e-02,7.244293e-06,4.000000e-01,134,0,3,0,0,2,3,3.504414e-01,1,0,Right,Left,Left,Vertical,Target primed,Left,None,Main study,C
2,1,8,2,5.000000e-02,6.201600e-02,1.240320e+00,76,45,3.189503e-01,3.666827e-01,3.332842e-02,8.336543e-02,7.244060e-06,4.000000e-01,34,0,2,1,1,2,3,4.587654e-01,1,1,Right,Left,Right,Vertical,Foil primed,Right,None,Main study,C
2,1,8,2,5.000000e-02,6.201600e-02,1.240320e+00,76,40,3.106927e-01,3.667597e-01,3.328556e-02,8.333011e-02,1.660152e-05,4.000000e-01,34,0,2,1,1,2,3,4.504284e-01,1,1,Right,Left,Right,Vertical,Foil primed,Right,None,Main study,C
2,1,8,2,5.000000e-02,6.201600e-02,1.240320e+00,76,50,3.189602e-01,2.666808e-01,1.333556e-01,8.334128e-02,7.847790e-06,4.000000e-01,134,1,3,1,1,2,3,2.920541e-01,0,0,Left,Right,Right,Vertical,Target primed,Right,None,Main study,C
2,1,8,2,5.000000e-02,6.201600e-02,1.240320e+00,76,50,3.107350e-01,2.666850e-01,1.333572e-01,8.336815e-02,7.244293e-06,4.000000e-01,134,0,2,1,1,2,3,3.670521e-01,1,1,Right,Left,Right,Vertical,Foil primed,Right,None,Main study,C
2,1,8,2,5.000000e-02,6.201600e-02,1.240320e+00,76,45,3.106921e-01,3.667059e-01,3.327802e-02,8.340225e-02,6.942544e-06,4.000000e-01,34,0,3,0,0,2,3,8.754920e-01,0,1,Left,Left,Left,Vertical,Target primed,Left,None,Main study,C
2,1,8,2,5.000000e-02,6.201600e-02,1.240320e+00,76,45,3.186541e-01,2.666896e-01,1.333481e-01,8.333857e-02,7.244293e-06,4.000000e-01,134,1,3,1,1,2,3,5.670767e-01,0,0,Left,Right,Right,Vertical,Target primed,Right,None,Main study,C
2,1,8,2,5.000000e-02,6.201600e-02,1.240320e+00,76,35,3.187673e-01,2.666742e-01,1.333140e-01,8.336120e-02,7.244293e-06,4.000000e-01,134,1,3,1,1,2,3,4.587747e-01,0,0,Left,Right,Right,Vertical,Target primed,Right,None,Main study,C
2,1,8,2,5.000000e-02,6.201600e-02,1.240320e+00,76,40,3.186786e-01,3.917342e-01,8.335124e-03,8.333192e-02,7.244293e-06,4.000000e-01,8,0,3,0,0,2,3,3.837517e-01,0,1,Left,Left,Left,Vertical,Target primed,Left,None,Main study,C
2,1,8,2,5.000000e-02,6.201600e-02,1.240320e+00,76,35,3.107150e-01,3.666625e-01,3.334804e-02,8.332589e-02,7.244293e-06,4.000000e-01,34,1,2,0,0,2,3,3.920765e-01,0,1,Left,Right,Left,Vertical,Foil primed,Left,None,Main study,C
2,1,9,2,5.000000e-02,6.201600e-02,1.240320e+00,76,40,3.122013e-01,3.663929e-01,3.334533e-02,8.332981e-02,7.244293e-06,4.000000e-01,34,1,3,1,1,2,3,5.671446e-01,1,1,Right,Right,Right,Vertical,Target primed,Right,None,Main study,C
2,1,9,2,5.000000e-02,6.201600e-02,1.240320e+00,76,35,3.106504e-01,3.916787e-01,8.356555e-03,8.332951e-02,7.244293e-06,4.000000e-01,8,0,2,1,1,2,3,5.254569e-01,0,0,Left,Left,Right,Vertical,Foil primed,Right,None,Main study,C
2,1,9,2,5.000000e-02,6.201600e-02,1.240320e+00,76,45,3.189460e-01,3.916675e-01,8.329389e-03,8.340799e-02,1.026271e-05,4.000000e-01,8,1,2,0,0,2,3,6.587229e-01,0,1,Left,Right,Left,Vertical,Foil primed,Left,None,Main study,C
2,1,9,2,5.000000e-02,6.201600e-02,1.240320e+00,76,50,3.188657e-01,3.916482e-01,8.352933e-03,8.333283e-02,7.244293e-06,4.000000e-01,8,1,2,0,0,2,3,5.754779e-01,1,0,Right,Right,Left,Vertical,Foil primed,Left,None,Main study,C
2,1,9,2,5.000000e-02,6.201600e-02,1.240320e+00,76,40,3.188353e-01,3.917170e-01,8.336935e-03,8.332317e-02,7.244293e-06,4.000000e-01,8,1,2,0,0,2,3,1.058833e+00,0,1,Left,Right,Left,Vertical,Foil primed,Left,None,Main study,C
2,1,9,2,5.000000e-02,6.201600e-02,1.240320e+00,76,35,3.186113e-01,3.666966e-01,3.333657e-02,8.327276e-02,7.546041e-06,4.000000e-01,34,0,2,1,1,2,3,1.075546e+00,0,0,Left,Left,Right,Vertical,Foil primed,Right,None,Main study,C
2,1,9,2,5.000000e-02,6.201600e-02,1.240320e+00,76,50,3.167516e-01,2.666980e-01,1.333481e-01,8.334128e-02,7.848023e-06,4.000000e-01,134,1,2,0,0,2,3,7.421904e-01,1,0,Right,Right,Left,Vertical,Foil primed,Left,None,Main study,C
2,1,9,2,5.000000e-02,6.201600e-02,1.240320e+00,76,40,3.188890e-01,3.667286e-01,3.332782e-02,8.331925e-02,7.244293e-06,4.000000e-01,34,1,2,0,0,2,3,7.337469e-01,0,1,Left,Right,Left,Vertical,Foil primed,Left,None,Main study,C
2,1,9,2,5.000000e-02,6.201600e-02,1.240320e+00,76,45,3.188718e-01,2.666253e-01,1.333409e-01,8.337901e-02,7.244293e-06,4.000000e-01,134,0,2,1,1,2,3,4.337769e-01,1,1,Right,Left,Right,Vertical,Foil primed,Right,None,Main study,C
2,1,9,2,5.000000e-02,6.201600e-02,1.240320e+00,76,45,3.107178e-01,3.667506e-01,3.332058e-02,8.333796e-02,7.244293e-06,4.000000e-01,34,0,2,1,1,2,3,4.587355e-01,1,1,Right,Left,Right,Vertical,Foil primed,Right,None,Main study,C
2,1,9,2,5.000000e-02,6.201600e-02,1.240320e+00,76,50,3.105469e-01,3.667029e-01,3.334080e-02,8.333464e-02,7.244293e-06,4.000000e-01,34,0,3,0,0,2,3,1.450574e+00,0,1,Left,Left,Left,Vertical,Target primed,Left,None,Main study,C
2,1,9,2,5.000000e-02,6.201600e-02,1.240320e+00,76,50,3.183119e-01,3.666637e-01,3.334352e-02,8.333343e-02,7.244293e-06,4.000000e-01,34,1,2,0,0,2,3,5.337718e-01,0,1,Left,Right,Left,Vertical,Foil primed,Left,None,Main study,C
2,1,9,2,5.000000e-02,6.201600e-02,1.240320e+00,76,45,3.189364e-01,2.666902e-01,1.332775e-01,8.338535e-02,8.149771e-06,4.000000e-01,134,0,2,1,1,2,3,3.337774e-01,1,1,Right,Left,Right,Vertical,Foil primed,Right,None,Main study,C
2,1,9,2,5.000000e-02,6.201600e-02,1.240320e+00,76,45,3.188190e-01,3.667077e-01,3.332993e-02,8.333585e-02,7.244293e-06,4.000000e-01,34,1,2,0,0,2,3,3.837465e-01,0,1,Left,Right,Left,Vertical,Foil primed,Left,None,Main study,C
2,1,9,2,5.000000e-02,6.201600e-02,1.240320e+00,76,55,3.189436e-01,2.667131e-01,1.333158e-01,8.339290e-02,7.244060e-06,4.000000e-01,134,1,2,0,0,2,3,3.587206e-01,0,1,Left,Right,Left,Vertical,Foil primed,Left,None,Main study,C
2,1,9,2,5.000000e-02,6.201600e-02,1.240320e+00,76,50,3.189370e-01,2.666893e-01,1.333490e-01,8.334038e-02,7.546041e-06,4.000000e-01,134,0,2,1,1,2,3,3.420709e-01,1,1,Right,Left,Right,Vertical,Foil primed,Right,None,Main study,C
2,1,9,2,5.000000e-02,6.201600e-02,1.240320e+00,76,55,3.108563e-01,3.916684e-01,8.336331e-03,8.335939e-02,7.244293e-06,4.000000e-01,8,0,2,1,1,2,3,4.087640e-01,1,1,Right,Left,Right,Vertical,Foil primed,Right,None,Main study,C
2,1,9,2,5.000000e-02,6.201600e-02,1.240320e+00,76,55,3.189729e-01,2.666549e-01,1.333544e-01,8.329933e-02,7.244293e-06,4.000000e-01,134,1,2,0,0,2,3,3.004677e-01,0,1,Left,Right,Left,Vertical,Foil primed,Left,None,Main study,C
2,1,9,2,5.000000e-02,6.201600e-02,1.240320e+00,76,40,3.107223e-01,2.667213e-01,1.333499e-01,8.333555e-02,7.244293e-06,4.000000e-01,134,1,2,0,0,2,3,3.837511e-01,0,1,Left,Right,Left,Vertical,Foil primed,Left,None,Main study,C
2,1,9,2,5.000000e-02,6.201600e-02,1.240320e+00,76,35,3.188754e-01,3.667418e-01,3.333808e-02,8.336815e-02,6.942544e-06,4.000000e-01,34,1,2,0,0,2,3,7.921196e-01,0,1,Left,Right,Left,Vertical,Foil primed,Left,None,Main study,C
2,1,9,2,5.000000e-02,6.201600e-02,1.240320e+00,76,45,3.188555e-01,3.666984e-01,3.333929e-02,8.333615e-02,6.942311e-06,4.000000e-01,34,0,3,0,0,2,3,4.087510e-01,1,0,Right,Left,Left,Vertical,Target primed,Left,None,Main study,C
2,1,9,2,5.000000e-02,6.201600e-02,1.240320e+00,76,55,3.106637e-01,3.917282e-01,8.357461e-03,8.330415e-02,7.546274e-06,4.000000e-01,8,1,2,0,0,2,3,4.004252e-01,0,1,Left,Right,Left,Vertical,Foil primed,Left,None,Main study,C
2,1,9,2,5.000000e-02,6.201600e-02,1.240320e+00,76,40,3.106797e-01,3.916612e-01,8.334822e-03,8.339531e-02,9.055482e-06,4.000000e-01,8,1,3,1,1,2,3,3.587339e-01,1,1,Right,Right,Right,Vertical,Target primed,Right,None,Main study,C
2,1,9,2,5.000000e-02,6.201600e-02,1.240320e+00,76,50,3.189264e-01,2.666355e-01,1.333484e-01,8.330476e-02,7.546041e-06,4.000000e-01,134,1,3,1,1,2,3,1.017177e+00,1,1,Right,Right,Right,Vertical,Target primed,Right,None,Main study,C
