Subject,Trial,Block,Block_type,Foil_contrast,Target_contrast,Target_to_foil_contrast,Max_illuminance,Angle,Fixation_time,Placeholder_time,Prime_time,Target_time,Mask_time,Feedback_time,Prime_duration,Prime_rotation,Prime_type,Target_rotation,Correct_answer,Choice_rotation,Choice_display,RT,Choice,Accuracy,Choice_label,Prime_rotation_label,Target_rotation_label,Choice_rotation_label,Prime_type_label,Correct_answer_label,Onscreen_choices_labels,Block_type_label,Experiment
1,1,1,-2,5.000000e-02,2.500000e-01,5,76,35,1.806473e-02,3.997200e-01,1.000429e-01,2.833245e-01,8.149887e-06,4.000000e-01,100,2,1,1,1,2,3,1.854683e+00,1,1,Right,Vertical,Right,Vertical,Neither,Right,None,Guided practice,C
1,1,1,-2,5.000000e-02,2.500000e-01,5,76,40,1.463332e-02,4.000680e-01,1.000112e-01,2.833462e-01,7.244293e-06,4.000000e-01,100,2,1,0,0,2,3,1.407509e+00,0,1,Left,Vertical,Left,Vertical,Neither,Left,None,Guided practice,C
1,1,1,-2,5.000000e-02,2.500000e-01,5,76,40,1.784559e-02,4.000382e-01,1.000471e-01,2.833516e-01,7.546158e-06,4.000000e-01,100,2,1,0,0,2,3,9.421954e-01,0,1,Left,Vertical,Left,Vertical,Neither,Left,None,Guided practice,C
1,1,1,-2,5.000000e-02,2.500000e-01,5,76,40,1.827271e-02,4.000680e-01,9.999671e-02,2.833679e-01,7.848139e-06,4.000000e-01,100,2,1,1,1,2,3,7.921507e-01,0,0,Left,Vertical,Right,Vertical,Neither,Right,None,Guided practice,C
1,1,1,-2,5.000000e-02,2.500000e-01,5,76,55,1.858180e-02,4.000442e-01,1.000203e-01,2.833154e-01,8.149887e-06,4.000000e-01,100,2,1,1,1,2,3,8.421896e-01,1,1,Right,Vertical,Right,Vertical,Neither,Right,None,Guided practice,C
1,1,2,-1,5.000000e-02,2.500000e-01,5,76,45,3.190256e-01,2.997115e-01,1.000206e-01,8.332682e-02,7.546274e-06,4.000000e-01,100,2,1,1,1,2,3,8.255052e-01,1,1,Right,Vertical,Right,Vertical,Neither,Right,None,Exclusion practice,C
1,1,2,-1,5.000000e-02,2.500000e-01,5,76,45,3.184732e-01,3.000306e-01,1.000311e-01,8.327218e-02,7.546274e-06,4.000000e-01,100,2,1,0,0,2,3,6.672110e-01,0,1,Left,Vertical,Left,Vertical,Neither,Left,None,Exclusion practice,C
1,1,2,-1,5.000000e-02,2.500000e-01,5,76,35,3.186700e-01,3.000728e-01,9.995143e-02,8.333557e-02,7.244409e-06,4.000000e-01,100,2,1,1,1,2,3,6.921171e-01,1,1,Right,Vertical,Right,Vertical,Neither,Right,None,Exclusion practice,C
1,1,2,-1,5.000000e-02,2.500000e-01,5,76,40,3.189260e-01,2.999346e-01,9.997437e-02,8.334795e-02,8.149887e-06,4.000000e-01,100,2,1,1,1,2,3,1.067192e+00,1,1,Right,Vertical,Right,Vertical,Neither,Right,None,Exclusion practice,C
1,1,2,-1,5.000000e-02,2.500000e-01,5,76,40,3.185484e-01,2.999980e-01,1.000046e-01,8.333889e-02,7.546158e-06,4.000000e-01,100,2,1,0,0,2,3,7.254856e-01,0,1,Left,Vertical,Left,Vertical,Neither,Left,None,Exclusion practice,C
1,1,2,-1,5.000000e-02,2.500000e-01,5,76,35,3.188019e-01,3.000143e-01,1.000094e-01,8.332863e-02,7.546274e-06,4.000000e-01,100,2,1,1,1,2,3,1.025516e+00,1,1,Right,Vertical,Right,Vertical,Neither,Right,None,Exclusion practice,C
1,1,2,-1,5.000000e-02,2.500000e-01,5,76,35,3.185879e-01,3.000967e-01,9.997769e-02,8.333587e-02,1.629977e-05,4.000000e-01,100,2,1,1,1,2,3,9.838158e-01,0,0,Left,Vertical,Right,Vertical,Neither,Right,None,Exclusion practice,C
1,1,2,-1,5.000000e-02,2.500000e-01,5,76,50,3.185837e-01,3.000143e-01,9.998101e-02,8.334402e-02,7.546274e-06,4.000000e-01,100,2,1,1,1,2,3,6.337945e-01,1,1,Right,Vertical,Right,Vertical,Neither,Right,None,Exclusion practice,C
1,1,2,-1,5.000000e-02,2.500000e-01,5,76,45,3.107257e-01,3.000146e-01,1.000091e-01,8.334674e-02,7.244409e-06,4.000000e-01,100,2,1,0,0,2,3,7.172008e-01,0,1,Left,Vertical,Left,Vertical,Neither,Left,None,Exclusion practice,C
1,1,2,-1,5.000000e-02,2.500000e-01,5,76,35,3.188662e-01,3.000285e-01,1.000052e-01,8.333678e-02,7.546274e-06,4.000000e-01,100,2,1,1,1,2,3,7.421268e-01,1,1,Right,Vertical,Right,Vertical,Neither,Right,None,Exclusion practice,C
1,1,2,-1,5.000000e-02,2.500000e-01,5,76,55,3.188273e-01,3.000451e-01,1.000133e-01,8.330478e-02,7.546158e-06,4.000000e-01,100,2,1,0,0,2,3,8.671428e-01,0,1,Left,Vertical,Left,Vertical,Neither,Left,None,Exclusion practice,C
1,1,2,-1,5.000000e-02,2.500000e-01,5,76,35,3.186075e-01,3.000242e-01,1.000100e-01,8.333497e-02,7.244293e-06,4.000000e-01,100,2,1,0,0,2,3,7.671787e-01,0,1,Left,Vertical,Left,Vertical,Neither,Left,None,Exclusion practice,C
1,1,2,-1,5.000000e-02,2.500000e-01,5,76,45,3.187352e-01,3.000254e-01,1.000097e-01,8.334976e-02,7.244409e-06,4.000000e-01,100,2,1,0,0,2,3,7.338142e-01,0,1,Left,Vertical,Left,Vertical,Neither,Left,None,Exclusion practice,C
1,1,2,-1,5.000000e-02,2.500000e-01,5,76,55,3.188237e-01,2.999962e-01,1.000444e-01,8.332803e-02,7.546274e-06,4.000000e-01,100,2,1,0,0,2,3,8.587837e-01,0,1,Left,Vertical,Left,Vertical,Neither,Left,None,Exclusion practice,C
1,1,2,-1,5.000000e-02,2.500000e-01,5,76,35,3.187708e-01,3.000088e-01,1.000293e-01,8.332169e-02,7.244293e-06,4.000000e-01,100,2,1,1,1,2,3,7.087816e-01,1,1,Right,Vertical,Right,Vertical,Neither,Right,None,Exclusion practice,C
1,1,2,-1,5.000000e-02,2.500000e-01,5,76,45,3.188210e-01,3.000342e-01,1.000287e-01,8.333768e-02,7.546158e-06,4.000000e-01,100,2,1,1,1,2,3,9.421326e-01,0,0,Left,Vertical,Right,Vertical,Neither,Right,None,Exclusion practice,C
1,1,2,-1,5.000000e-02,2.500000e-01,5,76,45,3.185870e-01,3.000324e-01,1.000112e-01,8.335368e-02,7.546274e-06,4.000000e-01,100,2,1,1,1,2,3,5.754406e-01,1,1,Right,Vertical,Right,Vertical,Neither,Right,None,Exclusion practice,C
1,1,2,-1,5.000000e-02,2.500000e-01,5,76,45,3.106858e-01,3.000608e-01,9.999701e-02,8.331716e-02,7.546158e-06,4.000000e-01,100,2,1,0,0,2,3,6.004373e-01,0,1,Left,Vertical,Left,Vertical,Neither,Left,None,Exclusion practice,C
1,1,2,-1,5.000000e-02,2.500000e-01,5,76,40,3.187760e-01,3.000233e-01,1.000287e-01,8.328969e-02,7.848023e-06,4.000000e-01,100,2,1,0,0,2,3,6.254587e-01,0,1,Left,Vertical,Left,Vertical,Neither,Left,None,Exclusion practice,C
1,1,2,-1,5.000000e-02,2.500000e-01,5,76,55,3.186706e-01,3.000529e-01,9.995143e-02,8.340047e-02,7.848023e-06,4.000000e-01,100,2,1,1,1,2,3,6.504460e-01,1,1,Right,Vertical,Right,Vertical,Neither,Right,None,Exclusion practice,C
1,1,2,-1,5.000000e-02,2.500000e-01,5,76,55,3.105898e-01,3.000490e-01,1.000601e-01,8.332108e-02,7.546158e-06,4.000000e-01,100,2,1,1,1,2,3,7.754340e-01,1,1,Right,Vertical,Right,Vertical,Neither,Right,None,Exclusion practice,C
1,1,2,-1,5.000000e-02,2.500000e-01,5,76,35,3.187627e-01,3.000188e-01,1.000408e-01,8.331806e-02,7.546158e-06,4.000000e-01,100,2,1,1,1,2,3,7.921866e-01,1,1,Right,Vertical,Right,Vertical,Neither,Right,None,Exclusion practice,C
1,1,2,-1,5.000000e-02,2.500000e-01,5,76,45,3.189160e-01,3.000303e-01,9.997407e-02,8.336546e-02,7.546274e-06,4.000000e-01,100,2,1,1,1,2,3,6.004198e-01,1,1,Right,Vertical,Right,Vertical,Neither,Right,None,Exclusion practice,C
1,1,2,-1,5.000000e-02,2.500000e-01,5,76,50,3.188034e-01,3.000094e-01,1.000030e-01,8.333497e-02,7.244293e-06,4.000000e-01,100,2,1,1,1,2,3,5.921461e-01,1,1,Right,Vertical,Right,Vertical,Neither,Right,None,Exclusion practice,C
1,1,2,-1,5.000000e-02,2.500000e-01,5,76,45,3.188831e-01,3.000007e-01,1.000248e-01,8.336968e-02,7.244409e-06,4.000000e-01,100,2,1,0,0,2,3,6.421539e-01,0,1,Left,Vertical,Left,Vertical,Neither,Left,None,Exclusion practice,C
1,1,2,-1,5.000000e-02,2.500000e-01,5,76,55,3.188321e-01,3.000064e-01,1.000121e-01,8.333708e-02,7.244409e-06,4.000000e-01,100,2,1,1,1,2,3,5.504777e-01,1,1,Right,Vertical,Right,Vertical,Neither,Right,None,Exclusion practice,C
1,1,3,0,5.000000e-02,1.000000e-01,2,76,40,3.153120e-01,2.999756e-01,9.999279e-02,8.339081e-02,7.546158e-06,4.000000e-01,100,2,1,0,0,2,3,7.587487e-01,0,1,Left,Vertical,Left,Vertical,Neither,Left,None,Final training,C
1,1,3,0,5.000000e-02,1.000000e-01,2,76,50,3.188010e-01,3.000420e-01,1.000133e-01,8.328456e-02,7.546158e-06,4.000000e-01,100,2,1,1,1,2,3,6.338045e-01,1,1,Right,Vertical,Right,Vertical,Neither,Right,None,Final training,C
1,1,3,0,5.000000e-02,1.000000e-01,2,76,40,3.188973e-01,3.000321e-01,1.000221e-01,8.328335e-02,7.848023e-06,4.000000e-01,100,2,1,1,1,2,3,5.087812e-01,1,1,Right,Vertical,Right,Vertical,Neither,Right,None,Final training,C
1,1,3,0,5.000000e-02,1.000000e-01,2,76,50,3.189009e-01,3.000342e-01,1.000411e-01,8.334010e-02,7.546158e-06,4.000000e-01,100,2,1,1,1,2,3,4.837966e-01,1,1,Right,Vertical,Right,Vertical,Neither,Right,None,Final training,C
1,1,3,0,5.000000e-02,1.000000e-01,2,76,55,3.106946e-01,3.000882e-01,9.999399e-02,8.332833e-02,7.546158e-06,4.000000e-01,100,2,1,0,0,2,3,4.504110e-01,0,1,Left,Vertical,Left,Vertical,Neither,Left,None,Final training,C
1,1,3,0,5.000000e-02,1.000000e-01,2,76,50,3.107190e-01,3.000233e-01,1.000360e-01,8.332320e-02,9.357347e-06,4.000000e-01,100,2,1,0,0,2,3,6.337779e-01,0,1,Left,Vertical,Left,Vertical,Neither,Left,None,Final training,C
1,1,3,0,5.000000e-02,1.000000e-01,2,76,40,3.189338e-01,3.000224e-01,1.000106e-01,8.330539e-02,7.546274e-06,4.000000e-01,100,2,1,0,0,2,3,6.338054e-01,0,1,Left,Vertical,Left,Vertical,Neither,Left,None,Final training,C
1,1,3,0,5.000000e-02,1.000000e-01,2,76,35,3.188608e-01,3.000427e-01,1.000127e-01,8.333074e-02,7.546158e-06,4.000000e-01,100,2,1,0,0,2,3,6.171144e-01,0,1,Left,Vertical,Left,Vertical,Neither,Left,None,Final training,C
1,1,3,0,5.000000e-02,1.000000e-01,2,76,35,3.105868e-01,3.000239e-01,1.000492e-01,8.330086e-02,7.848023e-06,4.000000e-01,100,2,1,1,1,2,3,1.017180e+00,1,1,Right,Vertical,Right,Vertical,Neither,Right,None,Final training,C
1,1,3,0,5.000000e-02,1.000000e-01,2,76,45,3.184904e-01,3.000233e-01,1.000115e-01,8.333376e-02,7.546158e-06,4.000000e-01,100,2,1,0,0,2,3,8.421652e-01,0,1,Left,Vertical,Left,Vertical,Neither,Left,None,Final training,C
1,1,3,0,5.000000e-02,1.000000e-01,2,76,55,3.186115e-01,3.000405e-01,9.999430e-02,8.334463e-02,7.546274e-06,4.000000e-01,100,2,1,1,1,2,3,5.754200e-01,1,1,Right,Vertical,Right,Vertical,Neither,Right,None,Final training,C
1,1,3,0,5.000000e-02,1.000000e-01,2,76,55,3.187063e-01,3.000197e-01,1.000145e-01,8.334282e-02,8.451752e-06,4.000000e-01,100,2,1,0,0,2,3,6.755692e-01,0,1,Left,Vertical,Left,Vertical,Neither,Left,None,Final training,C
1,1,3,0,5.000000e-02,1.000000e-01,2,76,50,3.106940e-01,3.000049e-01,1.000178e-01,8.330871e-02,7.244409e-06,4.000000e-01,100,2,1,1,1,2,3,7.088293e-01,1,1,Right,Vertical,Right,Vertical,Neither,Right,None,Final training,C
1,1,3,0,5.000000e-02,1.000000e-01,2,76,35,3.188883e-01,3.000538e-01,1.000085e-01,8.326886e-02,7.546158e-06,4.000000e-01,100,2,1,0,0,2,3,4.504885e-01,0,1,Left,Vertical,Left,Vertical,Neither,Left,None,Final training,C
1,1,3,0,5.000000e-02,1.000000e-01,2,76,50,3.107867e-01,3.000209e-01,1.000094e-01,8.334010e-02,9.357231e-06,4.000000e-01,100,2,1,0,0,2,3,7.171591e-01,0,1,Left,Vertical,Left,Vertical,Neither,Left,None,Final training,C
1,1,3,0,5.000000e-02,1.000000e-01,2,76,35,3.188258e-01,3.000007e-01,9.998765e-02,8.332289e-02,7.546274e-06,4.000000e-01,100,2,1,0,0,2,3,6.421506e-01,0,1,Left,Vertical,Left,Vertical,Neither,Left,None,Final training,C
1,1,3,0,5.000000e-02,1.000000e-01,2,76,55,3.105971e-01,3.000212e-01,1.000230e-01,8.332531e-02,7.546158e-06,4.000000e-01,100,2,1,0,0,2,3,6.671543e-01,0,1,Left,Vertical,Left,Vertical,Neither,Left,None,Final training,C
1,1,3,0,5.000000e-02,1.000000e-01,2,76,55,3.187962e-01,2.999738e-01,1.000127e-01,8.331776e-02,7.244293e-06,4.000000e-01,100,2,1,1,1,2,3,4.254668e-01,1,1,Right,Vertical,Right,Vertical,Neither,Right,None,Final training,C
1,1,3,0,5.000000e-02,1.000000e-01,2,76,55,3.107266e-01,3.000466e-01,1.000121e-01,8.333497e-02,7.244409e-06,4.000000e-01,100,2,1,0,0,2,3,1.008790e+00,0,1,Left,Vertical,Left,Vertical,Neither,Left,None,Final training,C
1,1,3,0,5.000000e-02,1.000000e-01,2,76,35,3.187696e-01,3.000239e-01,1.000136e-01,8.334342e-02,8.150004e-06,4.000000e-01,100,2,1,0,0,2,3,4.671162e-01,0,1,Left,Vertical,Left,Vertical,Neither,Left,None,Final training,C
1,1,3,0,5.000000e-02,7.500000e-02,1.500000e+00,76,45,3.188258e-01,3.000046e-01,1.000305e-01,8.335308e-02,9.055366e-06,4.000000e-01,100,2,1,0,0,2,3,5.254590e-01,0,1,Left,Vertical,Left,Vertical,Neither,Left,None,Final training,C
1,1,3,0,5.000000e-02,7.500000e-02,1.500000e+00,76,35,3.189169e-01,2.999654e-01,1.000405e-01,8.334825e-02,7.244409e-06,4.000000e-01,100,2,1,0,0,2,3,7.421250e-01,0,1,Left,Vertical,Left,Vertical,Neither,Left,None,Final training,C
1,1,3,0,5.000000e-02,7.500000e-02,1.500000e+00,76,50,3.188638e-01,3.000049e-01,1.000664e-01,8.333074e-02,9.357347e-06,4.000000e-01,100,2,1,1,1,2,3,4.504064e-01,1,1,Right,Vertical,Right,Vertical,Neither,Right,None,Final training,C
1,1,3,0,5.000000e-02,7.500000e-02,1.500000e+00,76,45,3.187929e-01,2.999717e-01,1.000021e-01,8.332591e-02,7.546274e-06,4.000000e-01,100,2,1,1,1,2,3,9.421830e-01,1,1,Right,Vertical,Right,Vertical,Neither,Right,None,Final training,C
1,1,3,0,5.000000e-02,7.500000e-02,1.500000e+00,76,55,3.185279e-01,3.000285e-01,1.000118e-01,8.329875e-02,7.848139e-06,4.000000e-01,100,2,1,1,1,2,3,8.171643e-01,1,1,Right,Vertical,Right,Vertical,Neither,Right,None,Final training,C
1,1,3,0,5.000000e-02,7.500000e-02,1.500000e+00,76,45,3.188101e-01,3.000351e-01,1.000166e-01,8.331505e-02,7.244409e-06,4.000000e-01,100,2,1,0,0,2,3,5.754723e-01,0,1,Left,Vertical,Left,Vertical,Neither,Left,None,Final training,C
1,1,3,0,5.000000e-02,7.500000e-02,1.500000e+00,76,55,3.189381e-01,2.999542e-01,1.000384e-01,8.333708e-02,7.546274e-06,4.000000e-01,100,2,1,1,1,2,3,6.921700e-01,1,1,Right,Vertical,Right,Vertical,Neither,Right,None,Final training,C
1,1,3,0,5.000000e-02,7.500000e-02,1.500000e+00,76,50,3.187567e-01,3.000288e-01,1.000070e-01,8.333829e-02,7.546274e-06,4.000000e-01,100,2,1,0,0,2,3,5.588135e-01,0,1,Left,Vertical,Left,Vertical,Neither,Left,None,Final training,C
1,1,3,0,5.000000e-02,7.500000e-02,1.500000e+00,76,35,3.106466e-01,3.000197e-01,9.999701e-02,8.334674e-02,9.055366e-06,4.000000e-01,100,2,1,0,0,2,3,5.587885e-01,0,1,Left,Vertical,Left,Vertical,Neither,Left,None,Final training,C
1,1,3,0,5.000000e-02,7.500000e-02,1.500000e+00,76,55,3.105874e-01,3.000155e-01,1.000212e-01,8.333527e-02,7.244293e-06,4.000000e-01,100,2,1,0,0,2,3,6.754880e-01,0,1,Left,Vertical,Left,Vertical,Neither,Left,None,Final training,C
1,1,3,0,5.000000e-02,7.500000e-02,1.500000e+00,76,35,3.188273e-01,3.000242e-01,1.000109e-01,8.333799e-02,7.546158e-06,4.000000e-01,100,2,1,0,0,2,3,7.088459e-01,0,1,Left,Vertical,Left,Vertical,Neither,Left,None,Final training,C
1,1,3,0,5.000000e-02,7.500000e-02,1.500000e+00,76,50,3.189393e-01,3.000248e-01,9.997709e-02,8.333346e-02,7.848023e-06,4.000000e-01,100,2,1,0,0,2,3,6.421289e-01,0,1,Left,Vertical,Left,Vertical,Neither,Left,None,Final training,C
1,1,3,0,5.000000e-02,7.500000e-02,1.500000e+00,76,50,3.188179e-01,3.000200e-01,1.000187e-01,8.341707e-02,7.546274e-06,4.000000e-01,100,2,1,1,1,2,3,6.419028e-01,0,0,Left,Vertical,Right,Vertical,Neither,Right,None,Final training,C
1,1,3,0,5.000000e-02,7.500000e-02,1.500000e+00,76,50,3.187920e-01,3.000526e-01,1.000673e-01,8.332350e-02,7.546158e-06,4.000000e-01,100,2,1,0,0,2,3,6.087849e-01,1,0,Right,Vertical,Left,Vertical,Neither,Left,None,Final training,C
1,1,3,0,5.000000e-02,7.500000e-02,1.500000e+00,76,55,3.188693e-01,2.999639e-01,1.000109e-01,8.334704e-02,7.546274e-06,4.000000e-01,100,2,1,0,0,2,3,8.838357e-01,0,1,Left,Vertical,Left,Vertical,Neither,Left,None,Final training,C
1,1,3,0,5.000000e-02,7.500000e-02,1.500000e+00,76,40,3.185593e-01,3.000285e-01,1.000245e-01,8.332350e-02,8.149887e-06,4.000000e-01,100,2,1,1,1,2,3,1.025519e+00,1,1,Right,Vertical,Right,Vertical,Neither,Right,None,Final training,C
1,1,3,0,5.000000e-02,7.500000e-02,1.500000e+00,76,40,3.185433e-01,3.000230e-01,1.000118e-01,8.333527e-02,7.546274e-06,4.000000e-01,100,2,1,1,1,2,3,9.338164e-01,1,1,Right,Vertical,Right,Vertical,Neither,Right,None,Final training,C
1,1,3,0,5.000000e-02,7.500000e-02,1.500000e+00,76,50,3.185777e-01,3.000861e-01,1.000175e-01,8.325920e-02,7.848023e-06,4.000000e-01,100,2,1,1,1,2,3,6.588244e-01,1,1,Right,Vertical,Right,Vertical,Neither,Right,None,Final training,C
1,1,3,0,5.000000e-02,7.500000e-02,1.500000e+00,76,45,3.187500e-01,3.000475e-01,9.997588e-02,8.334614e-02,7.244293e-06,4.000000e-01,100,2,1,1,1,2,3,7.088592e-01,1,1,Right,Vertical,Right,Vertical,Neither,Right,None,Final training,C
1,1,3,0,5.000000e-02,7.500000e-02,1.500000e+00,76,40,3.188237e-01,3.000079e-01,1.000139e-01,8.333527e-02,7.546158e-06,4.000000e-01,100,2,1,0,0,2,3,5.338129e-01,0,1,Left,Vertical,Left,Vertical,Neither,Left,None,Final training,C
1,1,3,0,5.000000e-02,6.250000e-02,1.250000e+00,76,35,3.189348e-01,2.999841e-01,1.000091e-01,8.333980e-02,7.546274e-06,4.000000e-01,100,2,1,0,0,2,3,8.505004e-01,0,1,Left,Vertical,Left,Vertical,Neither,Left,None,Final training,C
1,1,3,0,5.000000e-02,6.250000e-02,1.250000e+00,76,40,3.187549e-01,3.000372e-01,1.000187e-01,8.332621e-02,7.848023e-06,4.000000e-01,100,2,1,0,0,2,3,8.255049e-01,0,1,Left,Vertical,Left,Vertical,Neither,Left,None,Final training,C
1,1,3,0,5.000000e-02,6.250000e-02,1.250000e+00,76,55,3.189658e-01,2.998709e-01,9.999912e-02,8.333738e-02,7.244409e-06,4.000000e-01,100,2,1,1,1,2,3,7.421476e-01,1,1,Right,Vertical,Right,Vertical,Neither,Right,None,Final training,C
1,1,3,0,5.000000e-02,6.250000e-02,1.250000e+00,76,45,3.188563e-01,3.000245e-01,1.000215e-01,8.333497e-02,7.546158e-06,4.000000e-01,100,2,1,0,0,2,3,1.400519e+00,1,0,Right,Vertical,Left,Vertical,Neither,Left,None,Final training,C
1,1,3,0,5.000000e-02,6.250000e-02,1.250000e+00,76,45,3.184165e-01,3.000251e-01,1.000085e-01,8.331897e-02,7.546274e-06,4.000000e-01,100,2,1,0,0,2,3,5.588157e-01,0,1,Left,Vertical,Left,Vertical,Neither,Left,None,Final training,C
1,1,3,0,5.000000e-02,6.250000e-02,1.250000e+00,76,55,3.106282e-01,3.000903e-01,9.998403e-02,8.330991e-02,7.546274e-06,4.000000e-01,100,2,1,1,1,2,3,9.754582e-01,0,0,Left,Vertical,Right,Vertical,Neither,Right,None,Final training,C
1,1,3,0,5.000000e-02,6.250000e-02,1.250000e+00,76,50,3.185499e-01,3.000251e-01,1.000121e-01,8.332833e-02,7.848139e-06,4.000000e-01,100,2,1,0,0,2,3,8.671673e-01,1,0,Right,Vertical,Left,Vertical,Neither,Left,None,Final training,C
1,1,3,0,5.000000e-02,6.250000e-02,1.250000e+00,76,40,3.188424e-01,2.999922e-01,1.000239e-01,8.333406e-02,7.244293e-06,4.000000e-01,100,2,1,0,0,2,3,5.337625e-01,0,1,Left,Vertical,Left,Vertical,Neither,Left,None,Final training,C
1,1,3,0,5.000000e-02,6.250000e-02,1.250000e+00,76,40,3.106333e-01,3.000846e-01,9.995505e-02,8.336153e-02,7.546158e-06,4.000000e-01,100,2,1,0,0,2,3,6.004324e-01,0,1,Left,Vertical,Left,Vertical,Neither,Left,None,Final training,C
1,1,3,0,5.000000e-02,6.250000e-02,1.250000e+00,76,50,3.105769e-01,3.000131e-01,9.998403e-02,8.337179e-02,7.546274e-06,4.000000e-01,100,2,1,0,0,2,3,5.671005e-01,0,1,Left,Vertical,Left,Vertical,Neither,Left,None,Final training,C
1,1,3,0,5.000000e-02,6.250000e-02,1.250000e+00,76,55,3.186839e-01,3.000463e-01,9.997981e-02,8.330056e-02,7.848023e-06,4.000000e-01,100,2,1,0,0,2,3,5.587948e-01,1,0,Right,Vertical,Left,Vertical,Neither,Left,None,Final training,C
1,1,3,0,5.000000e-02,6.250000e-02,1.250000e+00,76,45,3.187443e-01,3.000022e-01,9.999007e-02,8.333044e-02,7.546158e-06,4.000000e-01,100,2,1,0,0,2,3,6.338223e-01,0,1,Left,Vertical,Left,Vertical,Neither,Left,None,Final training,C
1,1,3,0,5.000000e-02,6.250000e-02,1.250000e+00,76,45,3.187597e-01,3.000345e-01,1.000109e-01,8.334523e-02,7.546158e-06,4.000000e-01,100,2,1,0,0,2,3,6.838395e-01,0,1,Left,Vertical,Left,Vertical,Neither,Left,None,Final training,C
1,1,3,0,5.000000e-02,6.250000e-02,1.250000e+00,76,45,3.187600e-01,3.000230e-01,1.000115e-01,8.333255e-02,7.244293e-06,4.000000e-01,100,2,1,1,1,2,3,8.588468e-01,0,0,Left,Vertical,Right,Vertical,Neither,Right,None,Final training,C
1,1,3,0,5.000000e-02,6.250000e-02,1.250000e+00,76,45,3.188074e-01,2.999928e-01,1.000190e-01,8.336878e-02,7.546274e-06,4.000000e-01,100,2,1,1,1,2,3,8.337765e-01,1,1,Right,Vertical,Right,Vertical,Neither,Right,None,Final training,C
1,1,3,0,5.000000e-02,6.250000e-02,1.250000e+00,76,45,3.187893e-01,2.999784e-01,1.000601e-01,8.335972e-02,7.546158e-06,4.000000e-01,100,2,1,0,0,2,3,1.025495e+00,0,1,Left,Vertical,Left,Vertical,Neither,Left,None,Final training,C
1,1,3,0,5.000000e-02,6.250000e-02,1.250000e+00,76,50,3.185689e-01,2.999956e-01,9.999097e-02,8.334855e-02,7.546158e-06,4.000000e-01,100,2,1,1,1,2,3,6.587855e-01,1,1,Right,Vertical,Right,Vertical,Neither,Right,None,Final training,C
1,1,3,0,5.000000e-02,6.250000e-02,1.250000e+00,76,55,3.187020e-01,3.000251e-01,1.000070e-01,8.335881e-02,7.848023e-06,4.000000e-01,100,2,1,0,0,2,3,7.754636e-01,0,1,Left,Vertical,Left,Vertical,Neither,Left,None,Final training,C
1,1,3,0,5.000000e-02,6.250000e-02,1.250000e+00,76,40,3.106149e-01,2.999602e-01,1.000402e-01,8.331867e-02,7.546158e-06,4.000000e-01,100,2,1,1,1,2,3,8.923134e-01,1,1,Right,Vertical,Right,Vertical,Neither,Right,None,Final training,C
1,1,3,0,5.000000e-02,6.250000e-02,1.250000e+00,76,50,3.186097e-01,3.000408e-01,1.000197e-01,8.332501e-02,1.629977e-05,4.000000e-01,100,2,1,0,0,2,3,8.587647e-01,0,1,Left,Vertical,Left,Vertical,Neither,Left,None,Final training,C
1,1,3,0,5.000000e-02,5.625000e-02,1.125000e+00,76,50,3.186893e-01,3.000233e-01,1.000109e-01,8.336093e-02,7.848023e-06,4.000000e-01,100,2,1,0,0,2,3,9.255092e-01,1,0,Right,Vertical,Left,Vertical,Neither,Left,None,Final training,C
1,1,3,0,5.000000e-02,5.625000e-02,1.125000e+00,76,40,3.183353e-01,3.000505e-01,1.000121e-01,8.333678e-02,7.244409e-06,4.000000e-01,100,2,1,0,0,2,3,5.004279e-01,0,1,Left,Vertical,Left,Vertical,Neither,Left,None,Final training,C
1,1,3,0,5.000000e-02,5.625000e-02,1.125000e+00,76,45,3.189399e-01,3.000517e-01,1.000233e-01,8.333708e-02,7.244409e-06,4.000000e-01,100,2,1,1,1,2,3,6.837858e-01,0,0,Left,Vertical,Right,Vertical,Neither,Right,None,Final training,C
1,1,3,0,5.000000e-02,5.625000e-02,1.125000e+00,76,45,3.188421e-01,3.000408e-01,1.000106e-01,8.333678e-02,7.244409e-06,4.000000e-01,100,2,1,0,0,2,3,1.033765e+00,0,1,Left,Vertical,Left,Vertical,Neither,Left,None,Final training,C
1,1,3,0,5.000000e-02,5.625000e-02,1.125000e+00,76,40,3.185248e-01,3.000282e-01,1.000097e-01,8.333889e-02,7.546158e-06,4.000000e-01,100,2,1,0,0,2,3,5.754732e-01,1,0,Right,Vertical,Left,Vertical,Neither,Left,None,Final training,C
1,1,3,0,5.000000e-02,5.625000e-02,1.125000e+00,76,40,3.106173e-01,3.000067e-01,1.000559e-01,8.330690e-02,7.546274e-06,4.000000e-01,100,2,1,0,0,2,3,6.921467e-01,0,1,Left,Vertical,Left,Vertical,Neither,Left,None,Final training,C
1,1,3,0,5.000000e-02,5.625000e-02,1.125000e+00,76,55,3.188179e-01,3.000236e-01,1.000417e-01,8.329633e-02,7.546158e-06,4.000000e-01,100,2,1,0,0,2,3,5.421313e-01,1,0,Right,Vertical,Left,Vertical,Neither,Left,None,Final training,C
1,1,3,0,5.000000e-02,5.625000e-02,1.125000e+00,76,35,3.106680e-01,2.999974e-01,9.999007e-02,8.333768e-02,7.244293e-06,4.000000e-01,100,2,1,0,0,2,3,5.254559e-01,0,1,Left,Vertical,Left,Vertical,Neither,Left,None,Final training,C
1,1,3,0,5.000000e-02,5.625000e-02,1.125000e+00,76,45,3.188810e-01,2.999998e-01,1.000130e-01,8.336425e-02,7.546274e-06,4.000000e-01,100,2,1,1,1,2,3,1.150504e+00,1,1,Right,Vertical,Right,Vertical,Neither,Right,None,Final training,C
1,1,3,0,5.000000e-02,5.625000e-02,1.125000e+00,76,40,3.185004e-01,3.000245e-01,1.000115e-01,8.333950e-02,7.546274e-06,4.000000e-01,100,2,1,0,0,2,3,7.421470e-01,0,1,Left,Vertical,Left,Vertical,Neither,Left,None,Final training,C
1,1,3,0,5.000000e-02,5.625000e-02,1.125000e+00,76,35,3.188741e-01,2.999995e-01,1.000402e-01,8.330841e-02,7.546158e-06,4.000000e-01,100,2,1,0,0,2,3,8.171241e-01,1,0,Right,Vertical,Left,Vertical,Neither,Left,None,Final training,C
1,1,3,0,5.000000e-02,5.625000e-02,1.125000e+00,76,40,3.185689e-01,2.999916e-01,1.000429e-01,8.330358e-02,7.244409e-06,4.000000e-01,100,2,1,1,1,2,3,8.338326e-01,0,0,Left,Vertical,Right,Vertical,Neither,Right,None,Final training,C
1,1,3,0,5.000000e-02,5.625000e-02,1.125000e+00,76,45,3.188348e-01,3.000318e-01,9.999671e-02,8.338900e-02,7.546274e-06,4.000000e-01,100,2,1,1,1,2,3,5.420923e-01,1,1,Right,Vertical,Right,Vertical,Neither,Right,None,Final training,C
1,1,3,0,5.000000e-02,5.625000e-02,1.125000e+00,76,40,3.106412e-01,3.000179e-01,1.000037e-01,8.338025e-02,7.244409e-06,4.000000e-01,100,2,1,0,0,2,3,7.921138e-01,0,1,Left,Vertical,Left,Vertical,Neither,Left,None,Final training,C
1,1,3,0,5.000000e-02,5.625000e-02,1.125000e+00,76,35,3.188539e-01,2.999811e-01,1.000112e-01,8.333799e-02,7.244409e-06,4.000000e-01,100,2,1,1,1,2,3,1.042187e+00,0,0,Left,Vertical,Right,Vertical,Neither,Right,None,Final training,C
1,1,3,0,5.000000e-02,5.625000e-02,1.125000e+00,76,40,3.186540e-01,3.000813e-01,9.998554e-02,8.331776e-02,7.244409e-06,4.000000e-01,100,2,1,0,0,2,3,1.167196e+00,1,0,Right,Vertical,Left,Vertical,Neither,Left,None,Final training,C
1,1,3,0,5.000000e-02,5.625000e-02,1.125000e+00,76,35,3.185203e-01,2.999925e-01,1.000435e-01,8.329543e-02,7.546158e-06,4.000000e-01,100,2,1,0,0,2,3,5.754753e-01,0,1,Left,Vertical,Left,Vertical,Neither,Left,None,Final training,C
1,1,3,0,5.000000e-02,5.625000e-02,1.125000e+00,76,35,3.188234e-01,3.001154e-01,9.994268e-02,8.330448e-02,7.546158e-06,4.000000e-01,100,2,1,0,0,2,3,8.505228e-01,0,1,Left,Vertical,Left,Vertical,Neither,Left,None,Final training,C
1,1,3,0,5.000000e-02,5.625000e-02,1.125000e+00,76,50,3.188119e-01,3.000529e-01,9.996954e-02,8.333436e-02,7.546274e-06,4.000000e-01,100,2,1,0,0,2,3,9.171673e-01,0,1,Left,Vertical,Left,Vertical,Neither,Left,None,Final training,C
1,1,3,0,5.000000e-02,5.625000e-02,1.125000e+00,76,40,3.186009e-01,2.999702e-01,1.000423e-01,8.332440e-02,7.546274e-06,4.000000e-01,100,2,1,1,1,2,3,1.508865e+00,1,1,Right,Vertical,Right,Vertical,Neither,Right,None,Final training,C
1,1,4,1,5.000000e-02,1.000000e-01,2.000000e+00,76,35,3.129062e-01,3.667201e-01,3.334431e-02,8.332803e-02,7.546274e-06,4.000000e-01,34,2,1,1,1,2,3,1.341866e+00,1,1,Right,Vertical,Right,Vertical,Neither,Right,None,Staircase calibration,C
1,1,4,1,5.000000e-02,1.000000e-01,2.000000e+00,76,35,3.141743e-01,2.667297e-01,1.333389e-01,8.333587e-02,7.848023e-06,4.000000e-01,134,2,1,0,0,2,3,6.754497e-01,0,1,Left,Vertical,Left,Vertical,Neither,Left,None,Staircase calibration,C
1,1,4,1,5.000000e-02,1.000000e-01,2.000000e+00,76,55,3.183135e-01,3.917295e-01,8.316231e-03,8.329633e-02,7.546274e-06,4.000000e-01,8,2,1,1,1,2,3,9.088456e-01,1,1,Right,Vertical,Right,Vertical,Neither,Right,None,Staircase calibration,C
1,1,4,1,5.000000e-02,1.000000e-01,2.000000e+00,76,35,3.186347e-01,3.916978e-01,8.336757e-03,8.333738e-02,7.546158e-06,4.000000e-01,8,2,1,1,1,2,3,8.921528e-01,1,1,Right,Vertical,Right,Vertical,Neither,Right,None,Staircase calibration,C
1,1,4,1,5.000000e-02,1.000000e-01,2.000000e+00,76,55,3.184660e-01,3.667095e-01,3.333435e-02,8.333557e-02,7.244293e-06,4.000000e-01,34,2,1,1,1,2,3,7.004424e-01,1,1,Right,Vertical,Right,Vertical,Neither,Right,None,Staircase calibration,C
1,1,4,1,5.000000e-02,1.000000e-01,2.000000e+00,76,55,3.186649e-01,3.666951e-01,3.334069e-02,8.334372e-02,7.546158e-06,4.000000e-01,34,2,1,0,0,2,3,6.755088e-01,0,1,Left,Vertical,Left,Vertical,Neither,Left,None,Staircase calibration,C
1,1,4,1,5.000000e-02,1.000000e-01,2.000000e+00,76,40,3.188324e-01,3.667174e-01,3.334612e-02,8.333346e-02,7.244409e-06,4.000000e-01,34,2,1,1,1,2,3,5.587568e-01,1,1,Right,Vertical,Right,Vertical,Neither,Right,None,Staircase calibration,C
1,1,4,1,5.000000e-02,1.000000e-01,2.000000e+00,76,35,3.188940e-01,2.666887e-01,1.333951e-01,8.332863e-02,7.546274e-06,4.000000e-01,134,2,1,0,0,2,3,6.837629e-01,0,1,Left,Vertical,Left,Vertical,Neither,Left,None,Staircase calibration,C
1,1,4,1,5.000000e-02,1.000000e-01,2.000000e+00,76,45,3.188683e-01,2.666854e-01,1.333084e-01,8.335398e-02,7.848139e-06,4.000000e-01,134,2,1,0,0,2,3,1.117214e+00,0,1,Left,Vertical,Left,Vertical,Neither,Left,None,Staircase calibration,C
1,1,4,1,5.000000e-02,1.000000e-01,2.000000e+00,76,45,3.185532e-01,3.666643e-01,3.333918e-02,8.333467e-02,7.244409e-06,4.000000e-01,34,2,1,1,1,2,3,4.504671e-01,1,1,Right,Vertical,Right,Vertical,Neither,Right,None,Staircase calibration,C
1,1,4,1,5.000000e-02,7.918896e-02,1.583779e+00,76,50,3.181502e-01,2.667095e-01,1.333416e-01,8.334040e-02,7.546158e-06,4.000000e-01,134,2,1,1,1,2,3,5.004496e-01,1,1,Right,Vertical,Right,Vertical,Neither,Right,None,Staircase calibration,C
1,1,4,1,5.000000e-02,7.918896e-02,1.583779e+00,76,35,3.189993e-01,3.666896e-01,3.334491e-02,8.333165e-02,7.546158e-06,4.000000e-01,34,2,1,1,1,2,3,1.467188e+00,1,1,Right,Vertical,Right,Vertical,Neither,Right,None,Staircase calibration,C
1,1,4,1,5.000000e-02,7.918896e-02,1.583779e+00,76,50,3.182640e-01,2.667047e-01,1.333323e-01,8.332410e-02,7.546158e-06,4.000000e-01,134,2,1,0,0,2,3,8.254911e-01,0,1,Left,Vertical,Left,Vertical,Neither,Left,None,Staircase calibration,C
1,1,4,1,5.000000e-02,7.918896e-02,1.583779e+00,76,55,3.186915e-01,3.916987e-01,8.335851e-03,8.333618e-02,7.546158e-06,4.000000e-01,8,2,1,0,0,2,3,6.504587e-01,0,1,Left,Vertical,Left,Vertical,Neither,Left,None,Staircase calibration,C
1,1,4,1,5.000000e-02,7.918896e-02,1.583779e+00,76,40,3.187138e-01,3.917020e-01,8.333738e-03,8.333527e-02,7.546158e-06,4.000000e-01,8,2,1,1,1,2,3,9.588595e-01,1,1,Right,Vertical,Right,Vertical,Neither,Right,None,Staircase calibration,C
1,1,4,1,5.000000e-02,7.918896e-02,1.583779e+00,76,40,3.185997e-01,3.916975e-01,8.337964e-03,8.333618e-02,7.546158e-06,4.000000e-01,8,2,1,0,0,2,3,6.838232e-01,0,1,Left,Vertical,Left,Vertical,Neither,Left,None,Staircase calibration,C
1,1,4,1,5.000000e-02,7.918896e-02,1.583779e+00,76,45,3.187769e-01,2.666836e-01,1.333637e-01,8.330841e-02,7.848023e-06,4.000000e-01,134,2,1,0,0,2,3,6.421449e-01,0,1,Left,Vertical,Left,Vertical,Neither,Left,None,Staircase calibration,C
1,1,4,1,5.000000e-02,7.918896e-02,1.583779e+00,76,40,3.186555e-01,3.916884e-01,8.361810e-03,8.335338e-02,9.357231e-06,4.000000e-01,8,2,1,1,1,2,3,7.837701e-01,1,1,Right,Vertical,Right,Vertical,Neither,Right,None,Staircase calibration,C
1,1,4,1,5.000000e-02,7.918896e-02,1.583779e+00,76,35,3.187201e-01,3.916628e-01,8.331625e-03,8.335519e-02,7.546274e-06,4.000000e-01,8,2,1,1,1,2,3,7.504515e-01,0,0,Left,Vertical,Right,Vertical,Neither,Right,None,Staircase calibration,C
1,1,4,1,5.000000e-02,7.918896e-02,1.583779e+00,76,40,3.187470e-01,3.666784e-01,3.335669e-02,8.331776e-02,7.546274e-06,4.000000e-01,34,2,1,0,0,2,3,6.587786e-01,0,1,Left,Vertical,Left,Vertical,Neither,Left,None,Staircase calibration,C
1,1,4,1,5.000000e-02,7.918896e-02,1.583779e+00,76,50,3.186296e-01,3.666763e-01,3.334944e-02,8.332772e-02,7.244409e-06,4.000000e-01,34,2,1,0,0,2,3,1.217209e+00,0,1,Left,Vertical,Left,Vertical,Neither,Left,None,Staircase calibration,C
1,1,4,1,5.000000e-02,7.918896e-02,1.583779e+00,76,35,3.185058e-01,3.666377e-01,3.333797e-02,8.333527e-02,7.244409e-06,4.000000e-01,34,2,1,0,0,2,3,1.133867e+00,1,0,Right,Vertical,Left,Vertical,Neither,Left,None,Staircase calibration,C
1,1,4,1,5.000000e-02,7.918896e-02,1.583779e+00,76,45,3.184699e-01,3.666757e-01,3.342219e-02,8.332108e-02,9.357231e-06,4.000000e-01,34,2,1,1,1,2,3,5.837345e-01,1,1,Right,Vertical,Right,Vertical,Neither,Right,None,Staircase calibration,C
1,1,4,1,5.000000e-02,7.918896e-02,1.583779e+00,76,45,3.188210e-01,3.917382e-01,8.326796e-03,8.334704e-02,7.244409e-06,4.000000e-01,8,2,1,0,0,2,3,5.254261e-01,0,1,Left,Vertical,Left,Vertical,Neither,Left,None,Staircase calibration,C
1,1,4,1,5.000000e-02,7.918896e-02,1.583779e+00,76,40,3.189082e-01,3.917440e-01,8.317439e-03,8.334916e-02,7.244293e-06,4.000000e-01,8,2,1,1,1,2,3,9.588224e-01,1,1,Right,Vertical,Right,Vertical,Neither,Right,None,Staircase calibration,C
1,1,4,1,5.000000e-02,7.918896e-02,1.583779e+00,76,55,3.186287e-01,3.917575e-01,8.339775e-03,8.331414e-02,9.659212e-06,4.000000e-01,8,2,1,0,0,2,3,8.337421e-01,0,1,Left,Vertical,Left,Vertical,Neither,Left,None,Staircase calibration,C
1,1,4,1,5.000000e-02,7.918896e-02,1.583779e+00,76,45,3.188116e-01,3.666386e-01,3.342158e-02,8.331957e-02,7.244409e-06,4.000000e-01,34,2,1,0,0,2,3,1.333868e+00,0,1,Left,Vertical,Left,Vertical,Neither,Left,None,Staircase calibration,C
1,1,4,1,5.000000e-02,7.918896e-02,1.583779e+00,76,50,3.183169e-01,3.916471e-01,8.376903e-03,8.329452e-02,7.546158e-06,4.000000e-01,8,2,1,0,0,2,3,1.150522e+00,1,0,Right,Vertical,Left,Vertical,Neither,Left,None,Staircase calibration,C
1,1,4,1,5.000000e-02,7.918896e-02,1.583779e+00,76,55,3.184657e-01,2.666353e-01,1.333685e-01,8.334614e-02,7.546274e-06,4.000000e-01,134,2,1,1,1,2,3,1.142211e+00,1,1,Right,Vertical,Right,Vertical,Neither,Right,None,Staircase calibration,C
1,1,4,1,5.000000e-02,7.918896e-02,1.583779e+00,76,50,3.184461e-01,3.917041e-01,8.329211e-03,8.332954e-02,7.546274e-06,4.000000e-01,8,2,1,1,1,2,3,1.017152e+00,0,0,Left,Vertical,Right,Vertical,Neither,Right,None,Staircase calibration,C
1,1,4,1,5.000000e-02,7.918896e-02,1.583779e+00,76,45,3.185411e-01,3.916963e-01,8.338266e-03,8.333708e-02,7.244409e-06,4.000000e-01,8,2,1,0,0,2,3,7.254946e-01,0,1,Left,Vertical,Left,Vertical,Neither,Left,None,Staircase calibration,C
1,1,4,1,5.000000e-02,7.918896e-02,1.583779e+00,76,40,3.187135e-01,2.666371e-01,1.333549e-01,8.335489e-02,7.848139e-06,4.000000e-01,134,2,1,0,0,2,3,6.671135e-01,0,1,Left,Vertical,Left,Vertical,Neither,Left,None,Staircase calibration,C
1,1,4,1,5.000000e-02,7.918896e-02,1.583779e+00,76,40,3.186975e-01,3.916981e-01,8.389278e-03,8.328516e-02,7.244409e-06,4.000000e-01,8,2,1,0,0,2,3,7.088030e-01,0,1,Left,Vertical,Left,Vertical,Neither,Left,None,Staircase calibration,C
1,1,4,1,5.000000e-02,7.918896e-02,1.583779e+00,76,50,3.186368e-01,3.917234e-01,8.319853e-03,8.332591e-02,7.848139e-06,4.000000e-01,8,2,1,0,0,2,3,6.338365e-01,0,1,Left,Vertical,Left,Vertical,Neither,Left,None,Staircase calibration,C
1,1,4,1,5.000000e-02,7.918896e-02,1.583779e+00,76,35,3.188385e-01,2.667207e-01,1.333404e-01,8.332591e-02,7.848023e-06,4.000000e-01,134,2,1,0,0,2,3,6.004472e-01,0,1,Left,Vertical,Left,Vertical,Neither,Left,None,Staircase calibration,C
1,1,4,1,5.000000e-02,7.918896e-02,1.583779e+00,76,45,3.189015e-01,3.666932e-01,3.333978e-02,8.339956e-02,9.055482e-06,4.000000e-01,34,2,1,1,1,2,3,7.753806e-01,0,0,Left,Vertical,Right,Vertical,Neither,Right,None,Staircase calibration,C
1,1,4,1,5.000000e-02,7.918896e-02,1.583779e+00,76,35,3.187630e-01,3.666549e-01,3.334099e-02,8.333104e-02,7.546274e-06,4.000000e-01,34,2,1,1,1,2,3,1.042215e+00,1,1,Right,Vertical,Right,Vertical,Neither,Right,None,Staircase calibration,C
1,1,4,1,5.000000e-02,7.918896e-02,1.583779e+00,76,45,3.184560e-01,2.666452e-01,1.333978e-01,8.330237e-02,7.546158e-06,4.000000e-01,134,2,1,0,0,2,3,5.837921e-01,0,1,Left,Vertical,Left,Vertical,Neither,Left,None,Staircase calibration,C
1,1,4,1,5.000000e-02,7.918896e-02,1.583779e+00,76,55,3.187026e-01,3.666899e-01,3.333888e-02,8.333467e-02,7.244293e-06,4.000000e-01,34,2,1,1,1,2,3,8.255215e-01,1,1,Right,Vertical,Right,Vertical,Neither,Right,None,Staircase calibration,C
1,1,4,1,5.000000e-02,7.918896e-02,1.583779e+00,76,45,3.185756e-01,2.666739e-01,1.333688e-01,8.332350e-02,7.546274e-06,4.000000e-01,134,2,1,1,1,2,3,1.150482e+00,1,1,Right,Vertical,Right,Vertical,Neither,Right,None,Staircase calibration,C
1,1,4,1,5.000000e-02,7.918896e-02,1.583779e+00,76,35,3.184675e-01,2.666962e-01,1.333474e-01,8.336968e-02,7.546158e-06,4.000000e-01,134,2,1,0,0,2,3,8.421250e-01,0,1,Left,Vertical,Left,Vertical,Neither,Left,None,Staircase calibration,C
1,1,4,1,5.000000e-02,7.918896e-02,1.583779e+00,76,35,3.186374e-01,2.666839e-01,1.333365e-01,8.335459e-02,7.244409e-06,4.000000e-01,134,2,1,0,0,2,3,8.421280e-01,0,1,Left,Vertical,Left,Vertical,Neither,Left,None,Staircase calibration,C
1,1,4,1,5.000000e-02,7.918896e-02,1.583779e+00,76,45,3.184938e-01,3.916929e-01,8.322872e-03,8.329543e-02,7.546274e-06,4.000000e-01,8,2,1,0,0,2,3,7.254802e-01,0,1,Left,Vertical,Left,Vertical,Neither,Left,None,Staircase calibration,C
1,1,4,1,5.000000e-02,7.918896e-02,1.583779e+00,76,50,3.184775e-01,2.666799e-01,1.333784e-01,8.330810e-02,7.244409e-06,4.000000e-01,134,2,1,0,0,2,3,1.608892e+00,1,0,Right,Vertical,Left,Vertical,Neither,Left,None,Staircase calibration,C
1,1,4,1,5.000000e-02,7.918896e-02,1.583779e+00,76,50,3.182402e-01,3.917083e-01,8.335248e-03,8.330478e-02,7.244409e-06,4.000000e-01,8,2,1,1,1,2,3,1.125516e+00,1,1,Right,Vertical,Right,Vertical,Neither,Right,None,Staircase calibration,C
1,1,4,1,5.000000e-02,7.918896e-02,1.583779e+00,76,55,3.183108e-01,3.916957e-01,8.347020e-03,8.335640e-02,7.244409e-06,4.000000e-01,8,2,1,0,0,2,3,8.838293e-01,0,1,Left,Vertical,Left,Vertical,Neither,Left,None,Staircase calibration,C
1,1,4,1,5.000000e-02,7.918896e-02,1.583779e+00,76,50,3.185632e-01,3.916643e-01,8.337964e-03,8.333648e-02,7.546158e-06,4.000000e-01,8,2,1,1,1,2,3,1.108838e+00,1,1,Right,Vertical,Right,Vertical,Neither,Right,None,Staircase calibration,C
1,1,4,1,5.000000e-02,7.918896e-02,1.583779e+00,76,50,3.183468e-01,2.667249e-01,1.333308e-01,8.334131e-02,7.546158e-06,4.000000e-01,134,2,1,0,0,2,3,1.075519e+00,0,1,Left,Vertical,Left,Vertical,Neither,Left,None,Staircase calibration,C
1,1,4,1,5.000000e-02,7.918896e-02,1.583779e+00,76,40,3.183561e-01,3.666760e-01,3.332378e-02,8.334976e-02,7.546158e-06,4.000000e-01,34,2,1,1,1,2,3,6.337970e-01,1,1,Right,Vertical,Right,Vertical,Neither,Right,None,Staircase calibration,C
1,1,4,1,5.000000e-02,7.918896e-02,1.583779e+00,76,45,3.188605e-01,2.667032e-01,1.333335e-01,8.333286e-02,7.546158e-06,4.000000e-01,134,2,1,1,1,2,3,8.755044e-01,0,0,Left,Vertical,Right,Vertical,Neither,Right,None,Staircase calibration,C
1,1,4,1,5.000000e-02,7.918896e-02,1.583779e+00,76,45,3.186344e-01,3.666920e-01,3.335820e-02,8.325890e-02,7.848139e-06,4.000000e-01,34,2,1,0,0,2,3,1.508924e+00,0,1,Left,Vertical,Left,Vertical,Neither,Left,None,Staircase calibration,C
1,1,4,1,5.000000e-02,7.918896e-02,1.583779e+00,76,55,3.183486e-01,2.666398e-01,1.333407e-01,8.332440e-02,7.546158e-06,4.000000e-01,134,2,1,0,0,2,3,7.588420e-01,1,0,Right,Vertical,Left,Vertical,Neither,Left,None,Staircase calibration,C
1,1,4,1,5.000000e-02,7.918896e-02,1.583779e+00,76,50,3.186097e-01,2.667008e-01,1.333745e-01,8.339715e-02,9.055482e-06,4.000000e-01,134,2,1,1,1,2,3,1.058710e+00,1,1,Right,Vertical,Right,Vertical,Neither,Right,None,Staircase calibration,C
1,1,4,1,5.000000e-02,7.918896e-02,1.583779e+00,76,40,3.184216e-01,3.667283e-01,3.333858e-02,8.329694e-02,7.546274e-06,4.000000e-01,34,2,1,1,1,2,3,1.067232e+00,1,1,Right,Vertical,Right,Vertical,Neither,Right,None,Staircase calibration,C
1,1,4,1,5.000000e-02,7.918896e-02,1.583779e+00,76,40,3.183202e-01,3.917062e-01,8.358188e-03,8.338055e-02,8.753617e-06,4.000000e-01,8,2,1,0,0,2,3,7.837330e-01,0,1,Left,Vertical,Left,Vertical,Neither,Left,None,Staircase calibration,C
1,1,4,1,5.000000e-02,7.918896e-02,1.583779e+00,76,50,3.187874e-01,3.917192e-01,8.304761e-03,8.330478e-02,7.244409e-06,4.000000e-01,8,2,1,1,1,2,3,9.838608e-01,1,1,Right,Vertical,Right,Vertical,Neither,Right,None,Staircase calibration,C
1,1,4,1,5.000000e-02,7.918896e-02,1.583779e+00,76,55,3.186060e-01,3.666932e-01,3.334129e-02,8.332018e-02,9.960961e-06,4.000000e-01,34,2,1,0,0,2,3,7.504107e-01,0,1,Left,Vertical,Left,Vertical,Neither,Left,None,Staircase calibration,C
1,1,4,1,5.000000e-02,7.918896e-02,1.583779e+00,76,50,3.185997e-01,3.916935e-01,8.334946e-03,8.333406e-02,7.546158e-06,4.000000e-01,8,2,1,1,1,2,3,8.921407e-01,0,0,Left,Vertical,Right,Vertical,Neither,Right,None,Staircase calibration,C
1,1,4,1,5.000000e-02,7.918896e-02,1.583779e+00,76,50,3.187093e-01,3.917431e-01,8.291479e-03,8.335610e-02,7.244409e-06,4.000000e-01,8,2,1,1,1,2,3,7.921045e-01,1,1,Right,Vertical,Right,Vertical,Neither,Right,None,Staircase calibration,C
1,1,4,1,5.000000e-02,7.918896e-02,1.583779e+00,76,35,3.187521e-01,3.666618e-01,3.334944e-02,8.333708e-02,7.244293e-06,4.000000e-01,34,2,1,0,0,2,3,6.087728e-01,0,1,Left,Vertical,Left,Vertical,Neither,Left,None,Staircase calibration,C
1,1,4,1,5.000000e-02,7.918896e-02,1.583779e+00,76,50,3.189058e-01,3.667183e-01,3.331835e-02,8.333738e-02,7.244409e-06,4.000000e-01,34,2,1,1,1,2,3,7.838453e-01,1,1,Right,Vertical,Right,Vertical,Neither,Right,None,Staircase calibration,C
1,1,4,1,5.000000e-02,7.918896e-02,1.583779e+00,76,40,3.168804e-01,3.666917e-01,3.334220e-02,8.333587e-02,7.244409e-06,4.000000e-01,34,2,1,1,1,2,3,1.133854e+00,1,1,Right,Vertical,Right,Vertical,Neither,Right,None,Staircase calibration,C
1,1,4,1,5.000000e-02,7.918896e-02,1.583779e+00,76,40,3.184660e-01,3.917409e-01,8.336153e-03,8.334614e-02,1.690362e-05,4.000000e-01,8,2,1,1,1,2,3,5.087435e-01,1,1,Right,Vertical,Right,Vertical,Neither,Right,None,Staircase calibration,C
1,1,4,1,5.000000e-02,7.918896e-02,1.583779e+00,76,55,3.189508e-01,3.666537e-01,3.333918e-02,8.334734e-02,7.546274e-06,4.000000e-01,34,2,1,1,1,2,3,5.171316e-01,1,1,Right,Vertical,Right,Vertical,Neither,Right,None,Staircase calibration,C
1,1,4,1,5.000000e-02,7.918896e-02,1.583779e+00,76,35,3.187047e-01,3.666812e-01,3.333163e-02,8.334493e-02,7.546158e-06,4.000000e-01,34,2,1,0,0,2,3,6.338099e-01,0,1,Left,Vertical,Left,Vertical,Neither,Left,None,Staircase calibration,C
1,1,4,1,5.000000e-02,7.918896e-02,1.583779e+00,76,35,3.186785e-01,3.916718e-01,8.333135e-03,8.333708e-02,7.244409e-06,4.000000e-01,8,2,1,0,0,2,3,8.255505e-01,0,1,Left,Vertical,Left,Vertical,Neither,Left,None,Staircase calibration,C
1,1,4,1,5.000000e-02,7.918896e-02,1.583779e+00,76,50,3.185704e-01,3.666803e-01,3.336182e-02,8.331082e-02,7.244293e-06,4.000000e-01,34,2,1,0,0,2,3,1.317204e+00,0,1,Left,Vertical,Left,Vertical,Neither,Left,None,Staircase calibration,C
1,1,4,1,5.000000e-02,7.918896e-02,1.583779e+00,76,50,3.183027e-01,3.917261e-01,8.336757e-03,8.336395e-02,7.244293e-06,4.000000e-01,8,2,1,0,0,2,3,6.670906e-01,0,1,Left,Vertical,Left,Vertical,Neither,Left,None,Staircase calibration,C
1,1,4,1,5.000000e-02,7.918896e-02,1.583779e+00,76,45,3.188523e-01,3.916845e-01,8.352151e-03,8.331988e-02,7.848023e-06,4.000000e-01,8,2,1,0,0,2,3,1.050519e+00,0,1,Left,Vertical,Left,Vertical,Neither,Left,None,Staircase calibration,C
1,1,4,1,5.000000e-02,7.918896e-02,1.583779e+00,76,35,3.186558e-01,2.666932e-01,1.333455e-01,8.333799e-02,7.546158e-06,4.000000e-01,134,2,1,1,1,2,3,9.838611e-01,1,1,Right,Vertical,Right,Vertical,Neither,Right,None,Staircase calibration,C
1,1,4,1,5.000000e-02,7.165313e-02,1.433063e+00,76,40,3.186305e-01,2.666564e-01,1.333655e-01,8.332591e-02,7.546274e-06,4.000000e-01,134,2,1,1,1,2,3,2.025602e+00,1,1,Right,Vertical,Right,Vertical,Neither,Right,None,Staircase calibration,C
1,1,4,1,5.000000e-02,7.165313e-02,1.433063e+00,76,50,3.180404e-01,3.916111e-01,8.354264e-03,8.328154e-02,7.546274e-06,4.000000e-01,8,2,1,0,0,2,3,1.083845e+00,0,1,Left,Vertical,Left,Vertical,Neither,Left,None,Staircase calibration,C
1,1,4,1,5.000000e-02,7.165313e-02,1.433063e+00,76,35,3.185737e-01,2.666769e-01,1.333688e-01,8.331716e-02,7.244409e-06,4.000000e-01,134,2,1,0,0,2,3,6.504500e-01,0,1,Left,Vertical,Left,Vertical,Neither,Left,None,Staircase calibration,C
1,1,4,1,5.000000e-02,7.165313e-02,1.433063e+00,76,35,3.187060e-01,3.916960e-01,8.338266e-03,8.333618e-02,7.546158e-06,4.000000e-01,8,2,1,0,0,2,3,1.150508e+00,1,0,Right,Vertical,Left,Vertical,Neither,Left,None,Staircase calibration,C
1,1,4,1,5.000000e-02,7.165313e-02,1.433063e+00,76,40,3.185010e-01,3.667044e-01,3.334008e-02,8.334916e-02,7.546274e-06,4.000000e-01,34,2,1,1,1,2,3,5.754116e-01,1,1,Right,Vertical,Right,Vertical,Neither,Right,None,Staircase calibration,C
1,1,4,1,5.000000e-02,7.165313e-02,1.433063e+00,76,40,3.188427e-01,2.666482e-01,1.333848e-01,8.332652e-02,7.546158e-06,4.000000e-01,134,2,1,1,1,2,3,1.308837e+00,0,0,Left,Vertical,Right,Vertical,Neither,Right,None,Staircase calibration,C
1,1,4,1,5.000000e-02,7.165313e-02,1.433063e+00,76,55,3.183012e-01,3.666935e-01,3.333888e-02,8.335519e-02,7.244409e-06,4.000000e-01,34,2,1,0,0,2,3,1.300541e+00,1,0,Right,Vertical,Left,Vertical,Neither,Left,None,Staircase calibration,C
1,1,4,1,5.000000e-02,7.165313e-02,1.433063e+00,76,55,3.183117e-01,2.666214e-01,1.333558e-01,8.331988e-02,7.546158e-06,4.000000e-01,134,2,1,0,0,2,3,6.754983e-01,0,1,Left,Vertical,Left,Vertical,Neither,Left,None,Staircase calibration,C
1,1,4,1,5.000000e-02,7.165313e-02,1.433063e+00,76,50,3.187666e-01,2.666703e-01,1.333549e-01,8.333738e-02,7.244409e-06,4.000000e-01,134,2,1,1,1,2,3,9.588873e-01,1,1,Right,Vertical,Right,Vertical,Neither,Right,None,Staircase calibration,C
1,1,4,1,5.000000e-02,7.165313e-02,1.433063e+00,76,40,3.184787e-01,2.667279e-01,1.333296e-01,8.331022e-02,7.848023e-06,4.000000e-01,134,2,1,1,1,2,3,1.308854e+00,1,1,Right,Vertical,Right,Vertical,Neither,Right,None,Staircase calibration,C
1,1,5,2,5.000000e-02,7.165313e-02,1.433063e+00,76,35,3.132223e-01,3.666987e-01,3.329843e-02,8.334976e-02,7.546274e-06,4.000000e-01,34,1,2,0,0,2,3,1.125632e+00,0,1,Left,Right,Left,Vertical,Foil primed,Left,None,Main study,C
1,1,5,2,5.000000e-02,7.165313e-02,1.433063e+00,76,55,3.183914e-01,3.667053e-01,3.332982e-02,8.336606e-02,7.546274e-06,4.000000e-01,34,1,2,0,0,2,3,7.671144e-01,1,0,Right,Right,Left,Vertical,Foil primed,Left,None,Main study,C
1,1,5,2,5.000000e-02,7.165313e-02,1.433063e+00,76,40,3.187829e-01,3.666652e-01,3.334190e-02,8.333376e-02,7.244293e-06,4.000000e-01,34,0,2,1,1,2,3,5.421313e-01,0,0,Left,Left,Right,Vertical,Foil primed,Right,None,Main study,C
1,1,5,2,5.000000e-02,7.165313e-02,1.433063e+00,76,40,3.186740e-01,3.667120e-01,3.328515e-02,8.339504e-02,7.546274e-06,4.000000e-01,34,0,2,1,1,2,3,9.005044e-01,0,0,Left,Left,Right,Vertical,Foil primed,Right,None,Main study,C
1,1,5,2,5.000000e-02,7.165313e-02,1.433063e+00,76,55,3.186057e-01,3.917515e-01,8.323475e-03,8.333557e-02,7.244293e-06,4.000000e-01,8,1,3,1,1,2,3,6.420872e-01,1,1,Right,Right,Right,Vertical,Target primed,Right,None,Main study,C
1,1,5,2,5.000000e-02,7.165313e-02,1.433063e+00,76,45,3.188104e-01,2.666947e-01,1.333492e-01,8.332652e-02,7.546158e-06,4.000000e-01,134,1,2,0,0,2,3,6.504666e-01,0,1,Left,Right,Left,Vertical,Foil primed,Left,None,Main study,C
1,1,5,2,5.000000e-02,7.165313e-02,1.433063e+00,76,40,3.188750e-01,3.666960e-01,3.333948e-02,8.335700e-02,7.546274e-06,4.000000e-01,34,0,2,1,1,2,3,9.090298e-01,0,0,Left,Left,Right,Vertical,Foil primed,Right,None,Main study,C
1,1,5,2,5.000000e-02,7.165313e-02,1.433063e+00,76,45,3.183612e-01,3.667458e-01,3.333103e-02,8.333678e-02,7.546274e-06,4.000000e-01,34,0,2,1,1,2,3,5.671192e-01,1,1,Right,Left,Right,Vertical,Foil primed,Right,None,Main study,C
1,1,5,2,5.000000e-02,7.165313e-02,1.433063e+00,76,55,3.188520e-01,2.666513e-01,1.333573e-01,8.333255e-02,7.848139e-06,4.000000e-01,134,1,3,1,1,2,3,9.004914e-01,1,1,Right,Right,Right,Vertical,Target primed,Right,None,Main study,C
1,1,5,2,5.000000e-02,7.165313e-02,1.433063e+00,76,45,3.184799e-01,2.666760e-01,1.333486e-01,8.334583e-02,7.546158e-06,4.000000e-01,134,0,2,1,1,2,3,1.292185e+00,1,1,Right,Left,Right,Vertical,Foil primed,Right,None,Main study,C
1,1,5,2,5.000000e-02,7.165313e-02,1.433063e+00,76,50,3.185599e-01,3.916462e-01,8.336757e-03,8.333648e-02,7.244409e-06,4.000000e-01,8,0,3,0,0,2,3,9.838559e-01,0,1,Left,Left,Left,Vertical,Target primed,Left,None,Main study,C
1,1,5,2,5.000000e-02,7.165313e-02,1.433063e+00,76,50,3.185427e-01,3.666954e-01,3.333918e-02,8.344635e-02,7.546274e-06,4.000000e-01,34,1,3,1,1,2,3,6.587128e-01,1,1,Right,Right,Right,Vertical,Target primed,Right,None,Main study,C
1,1,5,2,5.000000e-02,7.165313e-02,1.433063e+00,76,35,3.188584e-01,3.667117e-01,3.334220e-02,8.330539e-02,7.848023e-06,4.000000e-01,34,1,3,1,1,2,3,1.492266e+00,1,1,Right,Right,Right,Vertical,Target primed,Right,None,Main study,C
1,1,5,2,5.000000e-02,7.165313e-02,1.433063e+00,76,35,3.180383e-01,2.666615e-01,1.333280e-01,8.332803e-02,7.546158e-06,4.000000e-01,134,1,2,0,0,2,3,9.255128e-01,0,1,Left,Right,Left,Vertical,Foil primed,Left,None,Main study,C
1,1,5,2,5.000000e-02,7.165313e-02,1.433063e+00,76,35,3.186845e-01,2.668001e-01,1.333142e-01,8.332772e-02,7.546274e-06,4.000000e-01,134,1,2,0,0,2,3,8.088082e-01,0,1,Left,Right,Left,Vertical,Foil primed,Left,None,Main study,C
1,1,5,2,5.000000e-02,7.165313e-02,1.433063e+00,76,40,3.187219e-01,3.667705e-01,3.328304e-02,8.332259e-02,9.357231e-06,4.000000e-01,34,1,2,0,0,2,3,8.004222e-01,1,0,Right,Right,Left,Vertical,Foil primed,Left,None,Main study,C
1,1,5,2,5.000000e-02,7.165313e-02,1.433063e+00,76,45,3.186782e-01,2.666648e-01,1.333990e-01,8.331806e-02,7.546274e-06,4.000000e-01,134,1,2,0,0,2,3,6.421017e-01,0,1,Left,Right,Left,Vertical,Foil primed,Left,None,Main study,C
1,1,5,2,5.000000e-02,7.165313e-02,1.433063e+00,76,35,3.188665e-01,3.916975e-01,8.337662e-03,8.333436e-02,7.244409e-06,4.000000e-01,8,0,3,0,0,2,3,1.008893e+00,0,1,Left,Left,Left,Vertical,Target primed,Left,None,Main study,C
1,1,5,2,5.000000e-02,7.165313e-02,1.433063e+00,76,35,3.185629e-01,3.666673e-01,3.332439e-02,8.335036e-02,7.546158e-06,4.000000e-01,34,1,2,0,0,2,3,6.421416e-01,0,1,Left,Right,Left,Vertical,Foil primed,Left,None,Main study,C
1,1,5,2,5.000000e-02,7.165313e-02,1.433063e+00,76,45,3.187473e-01,3.666957e-01,3.333918e-02,8.334614e-02,7.848139e-06,4.000000e-01,34,1,3,1,1,2,3,1.250519e+00,1,1,Right,Right,Right,Vertical,Target primed,Right,None,Main study,C
1,1,5,2,5.000000e-02,7.165313e-02,1.433063e+00,76,50,3.186048e-01,2.665815e-01,1.333452e-01,8.333768e-02,7.546274e-06,4.000000e-01,134,0,3,0,0,2,3,1.017185e+00,1,0,Right,Left,Left,Vertical,Target primed,Left,None,Main study,C
1,1,5,2,5.000000e-02,7.165313e-02,1.433063e+00,76,55,3.185774e-01,3.666993e-01,3.334522e-02,8.332712e-02,7.244293e-06,4.000000e-01,34,0,3,0,0,2,3,6.587988e-01,0,1,Left,Left,Left,Vertical,Target primed,Left,None,Main study,C
1,1,5,2,5.000000e-02,7.165313e-02,1.433063e+00,76,50,3.189402e-01,3.666063e-01,3.333526e-02,8.332471e-02,7.848023e-06,4.000000e-01,34,1,2,0,0,2,3,6.505109e-01,0,1,Left,Right,Left,Vertical,Foil primed,Left,None,Main study,C
1,1,5,2,5.000000e-02,7.165313e-02,1.433063e+00,76,55,3.186773e-01,3.666649e-01,3.335035e-02,8.333587e-02,7.244409e-06,4.000000e-01,34,0,2,1,1,2,3,7.421226e-01,0,0,Left,Left,Right,Vertical,Foil primed,Right,None,Main study,C
1,1,5,2,5.000000e-02,7.165313e-02,1.433063e+00,76,35,3.188083e-01,2.666522e-01,1.333419e-01,8.332501e-02,7.546158e-06,4.000000e-01,134,1,2,0,0,2,3,8.588541e-01,0,1,Left,Right,Left,Vertical,Foil primed,Left,None,Main study,C
1,1,5,2,5.000000e-02,7.165313e-02,1.433063e+00,76,45,3.186830e-01,3.917192e-01,8.335248e-03,8.332229e-02,7.546274e-06,4.000000e-01,8,1,3,1,1,2,3,2.025596e+00,0,0,Left,Right,Right,Vertical,Target primed,Right,None,Main study,C
1,1,5,2,5.000000e-02,7.165313e-02,1.433063e+00,76,35,3.179833e-01,2.667644e-01,1.333123e-01,8.333618e-02,7.244409e-06,4.000000e-01,134,1,2,0,0,2,3,1.183845e+00,1,0,Right,Right,Left,Vertical,Foil primed,Left,None,Main study,C
1,1,5,2,5.000000e-02,7.165313e-02,1.433063e+00,76,35,3.185919e-01,2.667234e-01,1.333784e-01,8.333738e-02,7.244409e-06,4.000000e-01,134,1,3,1,1,2,3,1.100487e+00,0,0,Left,Right,Right,Vertical,Target primed,Right,None,Main study,C
1,1,5,2,5.000000e-02,7.165313e-02,1.433063e+00,76,50,3.184971e-01,3.667636e-01,3.330416e-02,8.333587e-02,7.546274e-06,4.000000e-01,34,1,3,1,1,2,3,1.025473e+00,0,0,Left,Right,Right,Vertical,Target primed,Right,None,Main study,C
1,1,5,2,5.000000e-02,7.165313e-02,1.433063e+00,76,50,3.185155e-01,2.666863e-01,1.333468e-01,8.333980e-02,8.150004e-06,4.000000e-01,134,1,2,0,0,2,3,9.338653e-01,0,1,Left,Right,Left,Vertical,Foil primed,Left,None,Main study,C
1,1,5,2,5.000000e-02,7.165313e-02,1.433063e+00,76,45,3.186278e-01,2.666968e-01,1.333474e-01,8.332652e-02,7.546158e-06,4.000000e-01,134,1,2,0,0,2,3,1.417185e+00,1,0,Right,Right,Left,Vertical,Foil primed,Left,None,Main study,C
1,1,5,2,5.000000e-02,7.165313e-02,1.433063e+00,76,40,3.182831e-01,3.917394e-01,8.324381e-03,8.333587e-02,7.848023e-06,4.000000e-01,8,1,2,0,0,2,3,7.504726e-01,0,1,Left,Right,Left,Vertical,Foil primed,Left,None,Main study,C
1,1,5,2,5.000000e-02,7.165313e-02,1.433063e+00,76,50,3.184717e-01,2.666823e-01,1.333540e-01,8.334221e-02,7.244293e-06,4.000000e-01,134,1,2,0,0,2,3,1.567220e+00,1,0,Right,Right,Left,Vertical,Foil primed,Left,None,Main study,C
1,1,5,2,5.000000e-02,7.165313e-02,1.433063e+00,76,45,3.182948e-01,3.667074e-01,3.334069e-02,8.333406e-02,7.244293e-06,4.000000e-01,34,0,2,1,1,2,3,6.337843e-01,0,0,Left,Left,Right,Vertical,Foil primed,Right,None,Main study,C
1,1,5,2,5.000000e-02,7.165313e-02,1.433063e+00,76,40,3.106958e-01,3.666377e-01,3.335246e-02,8.332954e-02,8.451752e-06,4.000000e-01,34,1,3,1,1,2,3,8.004488e-01,1,1,Right,Right,Right,Vertical,Target primed,Right,None,Main study,C
1,1,5,2,5.000000e-02,7.165313e-02,1.433063e+00,76,55,3.187056e-01,3.666914e-01,3.334129e-02,8.332893e-02,7.546158e-06,4.000000e-01,34,1,2,0,0,2,3,8.838556e-01,0,1,Left,Right,Left,Vertical,Foil primed,Left,None,Main study,C
1,1,5,2,5.000000e-02,7.165313e-02,1.433063e+00,76,45,3.185514e-01,3.916688e-01,8.332531e-03,8.333648e-02,7.546274e-06,4.000000e-01,8,1,2,0,0,2,3,7.421751e-01,0,1,Left,Right,Left,Vertical,Foil primed,Left,None,Main study,C
1,1,5,2,5.000000e-02,7.165313e-02,1.433063e+00,76,55,3.188345e-01,3.917126e-01,8.321362e-03,8.333557e-02,7.546274e-06,4.000000e-01,8,0,3,0,0,2,3,7.088166e-01,0,1,Left,Left,Left,Vertical,Target primed,Left,None,Main study,C
1,1,5,2,5.000000e-02,7.165313e-02,1.433063e+00,76,40,3.187754e-01,3.916990e-01,8.338266e-03,8.333708e-02,7.848023e-06,4.000000e-01,8,0,2,1,1,2,3,1.150520e+00,1,1,Right,Left,Right,Vertical,Foil primed,Right,None,Main study,C
1,1,5,2,5.000000e-02,7.165313e-02,1.433063e+00,76,40,3.184657e-01,2.666836e-01,1.333395e-01,8.333768e-02,7.546274e-06,4.000000e-01,134,0,2,1,1,2,3,1.692212e+00,1,1,Right,Left,Right,Vertical,Foil primed,Right,None,Main study,C
1,1,5,2,5.000000e-02,7.165313e-02,1.433063e+00,76,55,3.179205e-01,3.666966e-01,3.333767e-02,8.333527e-02,7.546274e-06,4.000000e-01,34,0,2,1,1,2,3,1.008835e+00,1,1,Right,Left,Right,Vertical,Foil primed,Right,None,Main study,C
1,1,5,2,5.000000e-02,7.165313e-02,1.433063e+00,76,50,3.185245e-01,3.917723e-01,8.288461e-03,8.330599e-02,8.753617e-06,4.000000e-01,8,0,3,0,0,2,3,6.838332e-01,0,1,Left,Left,Left,Vertical,Target primed,Left,None,Main study,C
1,1,5,2,5.000000e-02,7.165313e-02,1.433063e+00,76,45,3.187627e-01,3.916341e-01,8.411615e-03,8.326222e-02,7.546158e-06,4.000000e-01,8,0,2,1,1,2,3,1.225531e+00,1,1,Right,Left,Right,Vertical,Foil primed,Right,None,Main study,C
1,1,5,2,5.000000e-02,7.165313e-02,1.433063e+00,76,40,3.184110e-01,3.667074e-01,3.336091e-02,8.332440e-02,9.357347e-06,4.000000e-01,34,0,3,0,0,2,3,6.254457e-01,0,1,Left,Left,Left,Vertical,Target primed,Left,None,Main study,C
1,1,5,2,5.000000e-02,7.165313e-02,1.433063e+00,76,50,3.189067e-01,2.666820e-01,1.333522e-01,8.334644e-02,7.546274e-06,4.000000e-01,134,0,3,0,0,2,3,1.042139e+00,1,0,Right,Left,Left,Vertical,Target primed,Left,None,Main study,C
1,1,5,2,5.000000e-02,7.165313e-02,1.433063e+00,76,35,3.183208e-01,3.666775e-01,3.332771e-02,8.336455e-02,8.753617e-06,4.000000e-01,34,1,2,0,0,2,3,5.504638e-01,0,1,Left,Right,Left,Vertical,Foil primed,Left,None,Main study,C
1,1,5,2,5.000000e-02,7.165313e-02,1.433063e+00,76,55,3.188699e-01,3.917219e-01,8.356075e-03,8.331595e-02,7.546158e-06,4.000000e-01,8,1,3,1,1,2,3,6.087737e-01,1,1,Right,Right,Right,Vertical,Target primed,Right,None,Main study,C
1,1,5,2,5.000000e-02,7.165313e-02,1.433063e+00,76,50,3.188952e-01,3.666673e-01,3.333224e-02,8.333768e-02,7.546158e-06,4.000000e-01,34,1,3,1,1,2,3,6.004840e-01,1,1,Right,Right,Right,Vertical,Target primed,Right,None,Main study,C
1,1,5,2,5.000000e-02,7.165313e-02,1.433063e+00,76,55,3.187817e-01,3.917268e-01,8.314118e-03,8.334010e-02,7.546274e-06,4.000000e-01,8,0,3,0,0,2,3,6.005055e-01,0,1,Left,Left,Left,Vertical,Target primed,Left,None,Main study,C
1,1,5,2,5.000000e-02,7.165313e-02,1.433063e+00,76,35,3.188478e-01,3.916957e-01,8.339473e-03,8.333799e-02,7.546274e-06,4.000000e-01,8,0,2,1,1,2,3,9.088306e-01,0,0,Left,Left,Right,Vertical,Foil primed,Right,None,Main study,C
1,1,5,2,5.000000e-02,7.165313e-02,1.433063e+00,76,45,3.184771e-01,3.667056e-01,3.335005e-02,8.331324e-02,7.244409e-06,4.000000e-01,34,1,2,0,0,2,3,6.921470e-01,0,1,Left,Right,Left,Vertical,Foil primed,Left,None,Main study,C
1,1,5,2,5.000000e-02,7.165313e-02,1.433063e+00,76,45,3.186465e-01,2.666787e-01,1.333679e-01,8.332531e-02,7.546158e-06,4.000000e-01,134,1,2,0,0,2,3,5.754348e-01,0,1,Left,Right,Left,Vertical,Foil primed,Left,None,Main study,C
1,1,5,2,5.000000e-02,7.165313e-02,1.433063e+00,76,55,3.187355e-01,3.917554e-01,8.334040e-03,8.333738e-02,7.546274e-06,4.000000e-01,8,1,2,0,0,2,3,6.004394e-01,0,1,Left,Right,Left,Vertical,Foil primed,Left,None,Main study,C
1,1,5,2,5.000000e-02,7.165313e-02,1.433063e+00,76,50,3.188454e-01,3.667283e-01,3.333948e-02,8.333376e-02,7.244409e-06,4.000000e-01,34,0,3,0,0,2,3,5.504363e-01,0,1,Left,Left,Left,Vertical,Target primed,Left,None,Main study,C
1,1,5,2,5.000000e-02,7.165313e-02,1.433063e+00,76,40,3.188798e-01,3.916902e-01,8.339474e-03,8.334312e-02,7.546274e-06,4.000000e-01,8,1,2,0,0,2,3,7.588085e-01,1,0,Right,Right,Left,Vertical,Foil primed,Left,None,Main study,C
1,1,5,2,5.000000e-02,7.165313e-02,1.433063e+00,76,45,3.105624e-01,3.916975e-01,8.336757e-03,8.333889e-02,7.546274e-06,4.000000e-01,8,0,2,1,1,2,3,8.505635e-01,0,0,Left,Left,Right,Vertical,Foil primed,Right,None,Main study,C
1,1,5,2,5.000000e-02,7.165313e-02,1.433063e+00,76,50,3.187132e-01,3.666893e-01,3.335367e-02,8.333587e-02,7.244409e-06,4.000000e-01,34,1,2,0,0,2,3,8.838453e-01,0,1,Left,Right,Left,Vertical,Foil primed,Left,None,Main study,C
1,1,5,2,5.000000e-02,7.165313e-02,1.433063e+00,76,45,3.186395e-01,2.667089e-01,1.333483e-01,8.332591e-02,7.546274e-06,4.000000e-01,134,0,2,1,1,2,3,9.254633e-01,1,1,Right,Left,Right,Vertical,Foil primed,Right,None,Main study,C
1,1,5,2,5.000000e-02,7.165313e-02,1.433063e+00,76,35,3.187443e-01,2.666869e-01,1.333365e-01,8.334734e-02,7.546158e-06,4.000000e-01,134,0,3,0,0,2,3,8.171564e-01,0,1,Left,Left,Left,Vertical,Target primed,Left,None,Main study,C
1,1,5,2,5.000000e-02,7.165313e-02,1.433063e+00,76,35,3.185982e-01,3.917050e-01,8.347020e-03,8.333708e-02,7.546158e-06,4.000000e-01,8,1,3,1,1,2,3,8.421241e-01,1,1,Right,Right,Right,Vertical,Target primed,Right,None,Main study,C
1,1,6,2,5.000000e-02,7.165313e-02,1.433063e+00,76,45,3.151088e-01,3.667002e-01,3.333375e-02,8.302437e-02,7.848023e-06,4.000000e-01,34,0,2,1,1,2,3,1.008858e+00,1,1,Right,Left,Right,Vertical,Foil primed,Right,None,Main study,C
1,1,6,2,5.000000e-02,7.165313e-02,1.433063e+00,76,45,3.183597e-01,3.666975e-01,3.333676e-02,8.333919e-02,7.546274e-06,4.000000e-01,34,0,3,0,0,2,3,6.254916e-01,0,1,Left,Left,Left,Vertical,Target primed,Left,None,Main study,C
1,1,6,2,5.000000e-02,7.165313e-02,1.433063e+00,76,35,3.188530e-01,2.666893e-01,1.333368e-01,8.334825e-02,7.546158e-06,4.000000e-01,134,1,3,1,1,2,3,6.254623e-01,0,0,Left,Right,Right,Vertical,Target primed,Right,None,Main study,C
1,1,6,2,5.000000e-02,7.165313e-02,1.433063e+00,76,50,3.187567e-01,3.916830e-01,8.337662e-03,8.334161e-02,7.244293e-06,4.000000e-01,8,1,2,0,0,2,3,7.421126e-01,1,0,Right,Right,Left,Vertical,Foil primed,Left,None,Main study,C
1,1,6,2,5.000000e-02,7.165313e-02,1.433063e+00,76,45,3.186815e-01,2.666510e-01,1.333733e-01,8.333648e-02,7.244409e-06,4.000000e-01,134,0,2,1,1,2,3,8.504657e-01,1,1,Right,Left,Right,Vertical,Foil primed,Right,None,Main study,C
1,1,6,2,5.000000e-02,7.165313e-02,1.433063e+00,76,50,3.185052e-01,2.666811e-01,1.333718e-01,8.324773e-02,7.848139e-06,4.000000e-01,134,1,2,0,0,2,3,5.922046e-01,0,1,Left,Right,Left,Vertical,Foil primed,Left,None,Main study,C
1,1,6,2,5.000000e-02,7.165313e-02,1.433063e+00,76,40,3.189275e-01,3.916006e-01,8.315627e-03,8.335459e-02,7.244409e-06,4.000000e-01,8,1,3,1,1,2,3,7.337792e-01,0,0,Left,Right,Right,Vertical,Target primed,Right,None,Main study,C
1,1,6,2,5.000000e-02,7.165313e-02,1.433063e+00,76,55,3.188255e-01,3.667083e-01,3.333526e-02,8.334855e-02,7.546158e-06,4.000000e-01,34,1,2,0,0,2,3,8.171069e-01,0,1,Left,Right,Left,Vertical,Foil primed,Left,None,Main study,C
1,1,6,2,5.000000e-02,7.165313e-02,1.433063e+00,76,50,3.187352e-01,3.916477e-01,8.331022e-03,8.334101e-02,7.244293e-06,4.000000e-01,8,0,3,0,0,2,3,6.754726e-01,0,1,Left,Left,Left,Vertical,Target primed,Left,None,Main study,C
1,1,6,2,5.000000e-02,7.165313e-02,1.433063e+00,76,40,3.188397e-01,3.916939e-01,8.330116e-03,8.334553e-02,7.546274e-06,4.000000e-01,8,1,3,1,1,2,3,6.338362e-01,1,1,Right,Right,Right,Vertical,Target primed,Right,None,Main study,C
1,1,6,2,5.000000e-02,7.165313e-02,1.433063e+00,76,45,3.187005e-01,3.667165e-01,3.335880e-02,8.330509e-02,7.546158e-06,4.000000e-01,34,1,3,1,1,2,3,1.050490e+00,1,1,Right,Right,Right,Vertical,Target primed,Right,None,Main study,C
1,1,6,2,5.000000e-02,7.165313e-02,1.433063e+00,76,50,3.187947e-01,3.666981e-01,3.333586e-02,8.333829e-02,7.244293e-06,4.000000e-01,34,1,2,0,0,2,3,6.254825e-01,0,1,Left,Right,Left,Vertical,Foil primed,Left,None,Main study,C
1,1,6,2,5.000000e-02,7.165313e-02,1.433063e+00,76,55,3.187017e-01,3.917138e-01,8.335248e-03,8.339655e-02,7.244409e-06,4.000000e-01,8,0,3,0,0,2,3,7.254110e-01,0,1,Left,Left,Left,Vertical,Target primed,Left,None,Main study,C
1,1,6,2,5.000000e-02,7.165313e-02,1.433063e+00,76,40,3.189435e-01,3.916522e-01,8.369055e-03,8.335066e-02,7.244409e-06,4.000000e-01,8,0,3,0,0,2,3,6.254146e-01,0,1,Left,Left,Left,Vertical,Target primed,Left,None,Main study,C
1,1,6,2,5.000000e-02,7.165313e-02,1.433063e+00,76,40,3.188789e-01,2.666968e-01,1.333374e-01,8.333648e-02,7.848023e-06,4.000000e-01,134,0,3,0,0,2,3,7.171509e-01,1,0,Right,Left,Left,Vertical,Target primed,Left,None,Main study,C
1,1,6,2,5.000000e-02,7.165313e-02,1.433063e+00,76,45,3.184962e-01,3.667255e-01,3.333918e-02,8.334131e-02,7.546274e-06,4.000000e-01,34,0,2,1,1,2,3,6.171147e-01,0,0,Left,Left,Right,Vertical,Foil primed,Right,None,Main study,C
1,1,6,2,5.000000e-02,7.165313e-02,1.433063e+00,76,35,3.188315e-01,3.666594e-01,3.333948e-02,8.333889e-02,7.546274e-06,4.000000e-01,34,1,3,1,1,2,3,8.421573e-01,1,1,Right,Right,Right,Vertical,Target primed,Right,None,Main study,C
1,1,6,2,5.000000e-02,7.165313e-02,1.433063e+00,76,35,3.184802e-01,3.666954e-01,3.333676e-02,8.334795e-02,7.244409e-06,4.000000e-01,34,0,3,0,0,2,3,9.171586e-01,0,1,Left,Left,Left,Vertical,Target primed,Left,None,Main study,C
1,1,6,2,5.000000e-02,7.165313e-02,1.433063e+00,76,35,3.185713e-01,3.667026e-01,3.334069e-02,8.333376e-02,7.546158e-06,4.000000e-01,34,0,2,1,1,2,3,1.158825e+00,0,0,Left,Left,Right,Vertical,Foil primed,Right,None,Main study,C
1,1,6,2,5.000000e-02,7.165313e-02,1.433063e+00,76,35,3.185091e-01,2.666769e-01,1.333564e-01,8.333768e-02,7.244293e-06,4.000000e-01,134,0,2,1,1,2,3,1.042134e+00,0,0,Left,Left,Right,Vertical,Foil primed,Right,None,Main study,C
1,1,6,2,5.000000e-02,7.165313e-02,1.433063e+00,76,55,3.184880e-01,3.917086e-01,8.335549e-03,8.333648e-02,7.546274e-06,4.000000e-01,8,1,2,0,0,2,3,9.754700e-01,1,0,Right,Right,Left,Vertical,Foil primed,Left,None,Main study,C
1,1,6,2,5.000000e-02,7.165313e-02,1.433063e+00,76,45,3.184980e-01,3.917331e-01,8.293592e-03,8.337542e-02,7.244293e-06,4.000000e-01,8,0,2,1,1,2,3,7.338148e-01,0,0,Left,Left,Right,Vertical,Foil primed,Right,None,Main study,C
1,1,6,2,5.000000e-02,7.165313e-02,1.433063e+00,76,45,3.186510e-01,3.916987e-01,8.337662e-03,8.333467e-02,7.244293e-06,4.000000e-01,8,1,2,0,0,2,3,7.337913e-01,0,1,Left,Right,Left,Vertical,Foil primed,Left,None,Main study,C
1,1,6,2,5.000000e-02,7.165313e-02,1.433063e+00,76,40,3.187050e-01,2.667340e-01,1.333827e-01,8.330297e-02,7.244409e-06,4.000000e-01,134,1,2,0,0,2,3,1.300504e+00,1,0,Right,Right,Left,Vertical,Foil primed,Left,None,Main study,C
1,1,6,2,5.000000e-02,7.165313e-02,1.433063e+00,76,50,3.184243e-01,3.667192e-01,3.333495e-02,8.332471e-02,7.546158e-06,4.000000e-01,34,0,3,0,0,2,3,7.671256e-01,0,1,Left,Left,Left,Vertical,Target primed,Left,None,Main study,C
1,1,6,2,5.000000e-02,7.165313e-02,1.433063e+00,76,35,3.186903e-01,2.666857e-01,1.333501e-01,8.333678e-02,7.244293e-06,4.000000e-01,134,0,2,1,1,2,3,1.183842e+00,0,0,Left,Left,Right,Vertical,Foil primed,Right,None,Main study,C
1,1,6,2,5.000000e-02,7.165313e-02,1.433063e+00,76,55,3.183576e-01,3.667059e-01,3.332228e-02,8.333527e-02,7.244409e-06,4.000000e-01,34,0,2,1,1,2,3,6.671829e-01,1,1,Right,Left,Right,Vertical,Foil primed,Right,None,Main study,C
1,1,6,2,5.000000e-02,7.165313e-02,1.433063e+00,76,45,3.188101e-01,2.666639e-01,1.333609e-01,8.331444e-02,7.546158e-06,4.000000e-01,134,0,2,1,1,2,3,9.838722e-01,1,1,Right,Left,Right,Vertical,Foil primed,Right,None,Main study,C
1,1,6,2,5.000000e-02,7.165313e-02,1.433063e+00,76,40,3.185710e-01,3.666220e-01,3.333586e-02,8.333950e-02,7.244409e-06,4.000000e-01,34,0,3,0,0,2,3,1.408895e+00,0,1,Left,Left,Left,Vertical,Target primed,Left,None,Main study,C
1,1,6,2,5.000000e-02,7.165313e-02,1.433063e+00,76,50,3.183875e-01,2.666860e-01,1.333474e-01,8.334161e-02,7.848139e-06,4.000000e-01,134,0,3,0,0,2,3,9.588976e-01,1,0,Right,Left,Left,Vertical,Target primed,Left,None,Main study,C
1,1,6,2,5.000000e-02,7.165313e-02,1.433063e+00,76,50,3.184784e-01,3.916866e-01,8.328305e-03,8.336968e-02,9.659212e-06,4.000000e-01,8,1,2,0,0,2,3,5.754786e-01,0,1,Left,Right,Left,Vertical,Foil primed,Left,None,Main study,C
1,1,6,2,5.000000e-02,7.165313e-02,1.433063e+00,76,50,3.188931e-01,2.666485e-01,1.333649e-01,8.336636e-02,9.357231e-06,4.000000e-01,134,0,3,0,0,2,3,1.083792e+00,0,1,Left,Left,Left,Vertical,Target primed,Left,None,Main study,C
1,1,6,2,5.000000e-02,7.165313e-02,1.433063e+00,76,35,3.186613e-01,3.917165e-01,8.316533e-03,8.333587e-02,7.244409e-06,4.000000e-01,8,0,2,1,1,2,3,6.254656e-01,1,1,Right,Left,Right,Vertical,Foil primed,Right,None,Main study,C
1,1,6,2,5.000000e-02,7.165313e-02,1.433063e+00,76,55,3.188578e-01,3.916809e-01,8.326192e-03,8.334825e-02,7.244293e-06,4.000000e-01,8,1,3,1,1,2,3,1.175532e+00,0,0,Left,Right,Right,Vertical,Target primed,Right,None,Main study,C
1,1,6,2,5.000000e-02,7.165313e-02,1.433063e+00,76,35,3.185248e-01,2.666908e-01,1.333615e-01,8.335368e-02,7.244409e-06,4.000000e-01,134,1,3,1,1,2,3,7.671256e-01,1,1,Right,Right,Right,Vertical,Target primed,Right,None,Main study,C
1,1,6,2,5.000000e-02,7.165313e-02,1.433063e+00,76,50,3.187775e-01,2.666694e-01,1.333317e-01,8.333738e-02,7.244409e-06,4.000000e-01,134,0,2,1,1,2,3,7.588344e-01,1,1,Right,Left,Right,Vertical,Foil primed,Right,None,Main study,C
1,1,6,2,5.000000e-02,7.165313e-02,1.433063e+00,76,35,3.187328e-01,2.667080e-01,1.333739e-01,8.332531e-02,7.546274e-06,4.000000e-01,134,1,2,0,0,2,3,9.171423e-01,0,1,Left,Right,Left,Vertical,Foil primed,Left,None,Main study,C
1,1,6,2,5.000000e-02,7.165313e-02,1.433063e+00,76,55,3.186411e-01,3.916978e-01,8.331022e-03,8.334040e-02,7.546158e-06,4.000000e-01,8,1,2,0,0,2,3,8.421465e-01,0,1,Left,Right,Left,Vertical,Foil primed,Left,None,Main study,C
1,1,6,2,5.000000e-02,7.165313e-02,1.433063e+00,76,40,3.186785e-01,3.667032e-01,3.332922e-02,8.333557e-02,7.546274e-06,4.000000e-01,34,1,3,1,1,2,3,1.208807e+00,0,0,Left,Right,Right,Vertical,Target primed,Right,None,Main study,C
1,1,6,2,5.000000e-02,7.165313e-02,1.433063e+00,76,40,3.185085e-01,2.666842e-01,1.333495e-01,8.333648e-02,7.546158e-06,4.000000e-01,134,1,2,0,0,2,3,6.837774e-01,1,0,Right,Right,Left,Vertical,Foil primed,Left,None,Main study,C
1,1,6,2,5.000000e-02,7.165313e-02,1.433063e+00,76,50,3.185701e-01,3.916990e-01,8.334342e-03,8.334674e-02,7.546158e-06,4.000000e-01,8,1,3,1,1,2,3,8.170891e-01,1,1,Right,Right,Right,Vertical,Target primed,Right,None,Main study,C
1,1,6,2,5.000000e-02,7.165313e-02,1.433063e+00,76,35,3.187923e-01,2.666724e-01,1.333646e-01,8.339805e-02,9.357231e-06,4.000000e-01,134,1,2,0,0,2,3,6.670039e-01,0,1,Left,Right,Left,Vertical,Foil primed,Left,None,Main study,C
1,1,6,2,5.000000e-02,7.165313e-02,1.433063e+00,76,35,3.186969e-01,3.666938e-01,3.333948e-02,8.333859e-02,7.546274e-06,4.000000e-01,34,1,2,0,0,2,3,6.587695e-01,0,1,Left,Right,Left,Vertical,Foil primed,Left,None,Main study,C
1,1,6,2,5.000000e-02,7.165313e-02,1.433063e+00,76,35,3.187657e-01,3.667068e-01,3.333707e-02,8.333497e-02,7.546274e-06,4.000000e-01,34,0,3,0,0,2,3,5.754611e-01,0,1,Left,Left,Left,Vertical,Target primed,Left,None,Main study,C
1,1,6,2,5.000000e-02,7.165313e-02,1.433063e+00,76,50,3.185599e-01,3.917397e-01,8.334946e-03,8.336546e-02,7.546274e-06,4.000000e-01,8,0,2,1,1,2,3,9.503957e-01,1,1,Right,Left,Right,Vertical,Foil primed,Right,None,Main study,C
1,1,6,2,5.000000e-02,7.165313e-02,1.433063e+00,76,50,3.186045e-01,2.666663e-01,1.333359e-01,8.336938e-02,7.546158e-06,4.000000e-01,134,0,2,1,1,2,3,8.587629e-01,1,1,Right,Left,Right,Vertical,Foil primed,Right,None,Main study,C
1,1,6,2,5.000000e-02,7.165313e-02,1.433063e+00,76,45,3.186818e-01,2.666066e-01,1.333676e-01,8.330659e-02,7.848139e-06,4.000000e-01,134,0,3,0,0,2,3,7.504470e-01,1,0,Right,Left,Left,Vertical,Target primed,Left,None,Main study,C
1,1,6,2,5.000000e-02,7.165313e-02,1.433063e+00,76,40,3.186456e-01,3.916984e-01,8.333436e-03,8.333799e-02,7.546274e-06,4.000000e-01,8,1,3,1,1,2,3,1.025503e+00,0,0,Left,Right,Right,Vertical,Target primed,Right,None,Main study,C
1,1,6,2,5.000000e-02,7.165313e-02,1.433063e+00,76,55,3.185288e-01,3.666951e-01,3.333737e-02,8.333738e-02,7.546274e-06,4.000000e-01,34,0,3,0,0,2,3,7.588121e-01,0,1,Left,Left,Left,Vertical,Target primed,Left,None,Main study,C
1,1,6,2,5.000000e-02,7.165313e-02,1.433063e+00,76,35,3.187014e-01,3.666920e-01,3.337057e-02,8.336364e-02,7.244409e-06,4.000000e-01,34,1,2,0,0,2,3,7.087475e-01,0,1,Left,Right,Left,Vertical,Foil primed,Left,None,Main study,C
1,1,6,2,5.000000e-02,7.165313e-02,1.433063e+00,76,40,3.187594e-01,3.916748e-01,8.338568e-03,8.333829e-02,9.055482e-06,4.000000e-01,8,1,3,1,1,2,3,5.920975e-01,1,1,Right,Right,Right,Vertical,Target primed,Right,None,Main study,C
1,1,6,2,5.000000e-02,7.165313e-02,1.433063e+00,76,50,3.187340e-01,2.667527e-01,1.332966e-01,8.333467e-02,7.546274e-06,4.000000e-01,134,0,2,1,1,2,3,8.171501e-01,1,1,Right,Left,Right,Vertical,Foil primed,Right,None,Main study,C
1,1,6,2,5.000000e-02,7.165313e-02,1.433063e+00,76,55,3.188092e-01,3.668016e-01,3.329451e-02,8.331656e-02,7.546158e-06,4.000000e-01,34,0,3,0,0,2,3,6.921066e-01,0,1,Left,Left,Left,Vertical,Target primed,Left,None,Main study,C
1,1,6,2,5.000000e-02,7.165313e-02,1.433063e+00,76,35,3.186368e-01,3.667382e-01,3.334069e-02,8.333497e-02,7.244409e-06,4.000000e-01,34,1,2,0,0,2,3,6.420921e-01,0,1,Left,Right,Left,Vertical,Foil primed,Left,None,Main study,C
1,1,6,2,5.000000e-02,7.165313e-02,1.433063e+00,76,45,3.189529e-01,2.666854e-01,1.333129e-01,8.336968e-02,7.244409e-06,4.000000e-01,134,1,2,0,0,2,3,8.337780e-01,1,0,Right,Right,Left,Vertical,Foil primed,Left,None,Main study,C
1,1,6,2,5.000000e-02,7.165313e-02,1.433063e+00,76,55,3.186658e-01,3.667512e-01,3.326492e-02,8.339323e-02,7.546274e-06,4.000000e-01,34,0,2,1,1,2,3,5.671032e-01,1,1,Right,Left,Right,Vertical,Foil primed,Right,None,Main study,C
1,1,6,2,5.000000e-02,7.165313e-02,1.433063e+00,76,50,3.188955e-01,2.666814e-01,1.333395e-01,8.334040e-02,7.244293e-06,4.000000e-01,134,1,3,1,1,2,3,1.192213e+00,1,1,Right,Right,Right,Vertical,Target primed,Right,None,Main study,C
1,1,6,2,5.000000e-02,7.165313e-02,1.433063e+00,76,50,3.184615e-01,3.916981e-01,8.324079e-03,8.335036e-02,7.546158e-06,4.000000e-01,8,1,3,1,1,2,3,1.192155e+00,1,1,Right,Right,Right,Vertical,Target primed,Right,None,Main study,C
1,1,6,2,5.000000e-02,7.165313e-02,1.433063e+00,76,50,3.183637e-01,2.666854e-01,1.333504e-01,8.333587e-02,7.848023e-06,4.000000e-01,134,1,3,1,1,2,3,6.671340e-01,0,0,Left,Right,Right,Vertical,Target primed,Right,None,Main study,C
1,1,6,2,5.000000e-02,7.165313e-02,1.433063e+00,76,35,3.186893e-01,3.916960e-01,8.335851e-03,8.335549e-02,7.244409e-06,4.000000e-01,8,0,3,0,0,2,3,1.367198e+00,0,1,Left,Left,Left,Vertical,Target primed,Left,None,Main study,C
1,1,7,2,5.000000e-02,7.165313e-02,1.433063e+00,76,40,3.131507e-01,2.666709e-01,1.333552e-01,8.332772e-02,7.244409e-06,4.000000e-01,134,1,3,1,1,2,3,8.338145e-01,1,1,Right,Right,Right,Vertical,Target primed,Right,None,Main study,C
1,1,7,2,5.000000e-02,7.165313e-02,1.433063e+00,76,55,3.186655e-01,2.666389e-01,1.333440e-01,8.333768e-02,7.244409e-06,4.000000e-01,134,0,2,1,1,2,3,8.921640e-01,1,1,Right,Left,Right,Vertical,Foil primed,Right,None,Main study,C
1,1,7,2,5.000000e-02,7.165313e-02,1.433063e+00,76,55,3.186679e-01,3.666954e-01,3.334008e-02,8.335670e-02,7.546274e-06,4.000000e-01,34,0,2,1,1,2,3,1.517231e+00,0,0,Left,Left,Right,Vertical,Foil primed,Right,None,Main study,C
1,1,7,2,5.000000e-02,7.165313e-02,1.433063e+00,76,35,3.183839e-01,2.667174e-01,1.333268e-01,8.333708e-02,7.546158e-06,4.000000e-01,134,1,2,0,0,2,3,5.004342e-01,0,1,Left,Right,Left,Vertical,Foil primed,Left,None,Main study,C
1,1,7,2,5.000000e-02,7.165313e-02,1.433063e+00,76,40,3.186495e-01,2.666965e-01,1.333087e-01,8.330871e-02,7.546274e-06,4.000000e-01,134,1,3,1,1,2,3,1.000518e+00,0,0,Left,Right,Right,Vertical,Target primed,Right,None,Main study,C
1,1,7,2,5.000000e-02,7.165313e-02,1.433063e+00,76,35,3.185903e-01,2.666854e-01,1.333507e-01,8.333497e-02,7.546274e-06,4.000000e-01,134,1,2,0,0,2,3,7.505061e-01,0,1,Left,Right,Left,Vertical,Foil primed,Left,None,Main study,C
1,1,7,2,5.000000e-02,7.165313e-02,1.433063e+00,76,50,3.186782e-01,3.916872e-01,8.347020e-03,8.334372e-02,7.244409e-06,4.000000e-01,8,1,3,1,1,2,3,6.087915e-01,0,0,Left,Right,Right,Vertical,Target primed,Right,None,Main study,C
1,1,7,2,5.000000e-02,7.165313e-02,1.433063e+00,76,35,3.186881e-01,2.666588e-01,1.333661e-01,8.334402e-02,7.546158e-06,4.000000e-01,134,0,2,1,1,2,3,1.342162e+00,1,1,Right,Left,Right,Vertical,Foil primed,Right,None,Main study,C
1,1,7,2,5.000000e-02,7.165313e-02,1.433063e+00,76,45,3.183848e-01,2.666860e-01,1.334083e-01,8.331716e-02,7.244409e-06,4.000000e-01,134,1,3,1,1,2,3,8.754648e-01,1,1,Right,Right,Right,Vertical,Target primed,Right,None,Main study,C
1,1,7,2,5.000000e-02,7.165313e-02,1.433063e+00,76,50,3.185749e-01,3.666954e-01,3.334491e-02,8.336364e-02,8.753617e-06,4.000000e-01,34,1,2,0,0,2,3,8.337849e-01,0,1,Left,Right,Left,Vertical,Foil primed,Left,None,Main study,C
1,1,7,2,5.000000e-02,7.165313e-02,1.433063e+00,76,50,3.187334e-01,3.667412e-01,3.333284e-02,8.333768e-02,7.244409e-06,4.000000e-01,34,0,2,1,1,2,3,7.171141e-01,1,1,Right,Left,Right,Vertical,Foil primed,Right,None,Main study,C
1,1,7,2,5.000000e-02,7.165313e-02,1.433063e+00,76,55,3.187283e-01,2.667083e-01,1.333480e-01,8.335489e-02,7.244409e-06,4.000000e-01,134,1,2,0,0,2,3,7.754406e-01,0,1,Left,Right,Left,Vertical,Foil primed,Left,None,Main study,C
1,1,7,2,5.000000e-02,7.165313e-02,1.433063e+00,76,50,3.187126e-01,2.666832e-01,1.333869e-01,8.330297e-02,7.546274e-06,4.000000e-01,134,1,2,0,0,2,3,6.337997e-01,0,1,Left,Right,Left,Vertical,Foil primed,Left,None,Main study,C
1,1,7,2,5.000000e-02,7.165313e-02,1.433063e+00,76,45,3.186972e-01,3.917255e-01,8.315627e-03,8.335459e-02,9.055482e-06,4.000000e-01,8,0,3,0,0,2,3,6.337677e-01,0,1,Left,Left,Left,Vertical,Target primed,Left,None,Main study,C
1,1,7,2,5.000000e-02,7.165313e-02,1.433063e+00,76,55,3.186320e-01,3.916320e-01,8.341284e-03,8.334251e-02,7.546158e-06,4.000000e-01,8,0,2,1,1,2,3,6.672339e-01,1,1,Right,Left,Right,Vertical,Foil primed,Right,None,Main study,C
1,1,7,2,5.000000e-02,7.165313e-02,1.433063e+00,76,35,3.106182e-01,2.667134e-01,1.333480e-01,8.326222e-02,7.546274e-06,4.000000e-01,134,1,2,0,0,2,3,7.755366e-01,0,1,Left,Right,Left,Vertical,Foil primed,Left,None,Main study,C
1,1,7,2,5.000000e-02,7.165313e-02,1.433063e+00,76,55,3.187862e-01,3.666944e-01,3.333435e-02,8.332591e-02,7.244409e-06,4.000000e-01,34,1,3,1,1,2,3,6.754847e-01,1,1,Right,Right,Right,Vertical,Target primed,Right,None,Main study,C
1,1,7,2,5.000000e-02,7.165313e-02,1.433063e+00,76,40,3.186525e-01,2.666754e-01,1.333474e-01,8.333678e-02,7.244293e-06,4.000000e-01,134,0,3,0,0,2,3,7.254934e-01,0,1,Left,Left,Left,Vertical,Target primed,Left,None,Main study,C
1,1,7,2,5.000000e-02,7.165313e-02,1.433063e+00,76,35,3.187959e-01,3.667050e-01,3.333858e-02,8.330720e-02,7.546158e-06,4.000000e-01,34,0,3,0,0,2,3,5.921346e-01,0,1,Left,Left,Left,Vertical,Target primed,Left,None,Main study,C
1,1,7,2,5.000000e-02,7.165313e-02,1.433063e+00,76,40,3.185617e-01,3.917304e-01,8.324079e-03,8.329694e-02,7.546274e-06,4.000000e-01,8,1,2,0,0,2,3,1.933941e+00,1,0,Right,Right,Left,Vertical,Foil primed,Left,None,Main study,C
1,1,7,2,5.000000e-02,7.165313e-02,1.433063e+00,76,55,3.179453e-01,3.667494e-01,3.332288e-02,8.333527e-02,7.244409e-06,4.000000e-01,34,1,3,1,1,2,3,5.838519e-01,0,0,Left,Right,Right,Vertical,Target primed,Right,None,Main study,C
1,1,7,2,5.000000e-02,7.165313e-02,1.433063e+00,76,50,3.188846e-01,2.667216e-01,1.333217e-01,8.332833e-02,7.546158e-06,4.000000e-01,134,0,2,1,1,2,3,6.254358e-01,1,1,Right,Left,Right,Vertical,Foil primed,Right,None,Main study,C
1,1,7,2,5.000000e-02,7.165313e-02,1.433063e+00,76,35,3.186148e-01,2.667469e-01,1.332604e-01,8.337089e-02,7.244293e-06,4.000000e-01,134,1,2,0,0,2,3,5.921192e-01,0,1,Left,Right,Left,Vertical,Foil primed,Left,None,Main study,C
1,1,7,2,5.000000e-02,7.165313e-02,1.433063e+00,76,55,3.189058e-01,3.666929e-01,3.330930e-02,8.339775e-02,9.357347e-06,4.000000e-01,34,1,2,0,0,2,3,7.920610e-01,1,0,Right,Right,Left,Vertical,Foil primed,Left,None,Main study,C
1,1,7,2,5.000000e-02,7.165313e-02,1.433063e+00,76,35,3.185973e-01,3.916555e-01,8.328003e-03,8.334523e-02,7.244409e-06,4.000000e-01,8,1,3,1,1,2,3,7.171503e-01,1,1,Right,Right,Right,Vertical,Target primed,Right,None,Main study,C
1,1,7,2,5.000000e-02,7.165313e-02,1.433063e+00,76,50,3.188762e-01,2.666860e-01,1.333498e-01,8.330297e-02,7.546274e-06,4.000000e-01,134,1,3,1,1,2,3,7.921434e-01,1,1,Right,Right,Right,Vertical,Target primed,Right,None,Main study,C
1,1,7,2,5.000000e-02,7.165313e-02,1.433063e+00,76,50,3.186854e-01,3.666872e-01,3.335306e-02,8.328154e-02,7.848023e-06,4.000000e-01,34,0,3,0,0,2,3,1.508937e+00,0,1,Left,Left,Left,Vertical,Target primed,Left,None,Main study,C
1,1,7,2,5.000000e-02,7.165313e-02,1.433063e+00,76,50,3.182308e-01,2.667222e-01,1.332800e-01,8.329995e-02,7.546274e-06,4.000000e-01,134,1,2,0,0,2,3,7.005212e-01,0,1,Left,Right,Left,Vertical,Foil primed,Left,None,Main study,C
1,1,7,2,5.000000e-02,7.165313e-02,1.433063e+00,76,50,3.187654e-01,3.666733e-01,3.336514e-02,8.324260e-02,7.546158e-06,4.000000e-01,34,0,2,1,1,2,3,6.004961e-01,1,1,Right,Left,Right,Vertical,Foil primed,Right,None,Main study,C
1,1,7,2,5.000000e-02,7.165313e-02,1.433063e+00,76,40,3.188216e-01,2.666860e-01,1.333440e-01,8.333799e-02,7.546274e-06,4.000000e-01,134,0,2,1,1,2,3,8.588483e-01,0,0,Left,Left,Right,Vertical,Foil primed,Right,None,Main study,C
1,1,7,2,5.000000e-02,7.165313e-02,1.433063e+00,76,55,3.186881e-01,2.666679e-01,1.333540e-01,8.334916e-02,7.546158e-06,4.000000e-01,134,0,3,0,0,2,3,7.504919e-01,0,1,Left,Left,Left,Vertical,Target primed,Left,None,Main study,C
1,1,7,2,5.000000e-02,7.165313e-02,1.433063e+00,76,55,3.186525e-01,2.666576e-01,1.333458e-01,8.331988e-02,7.848023e-06,4.000000e-01,134,1,3,1,1,2,3,6.838211e-01,1,1,Right,Right,Right,Vertical,Target primed,Right,None,Main study,C
1,1,7,2,5.000000e-02,7.165313e-02,1.433063e+00,76,35,3.187389e-01,3.916872e-01,8.315024e-03,8.334101e-02,7.848023e-06,4.000000e-01,8,1,2,0,0,2,3,5.838021e-01,0,1,Left,Right,Left,Vertical,Foil primed,Left,None,Main study,C
1,1,7,2,5.000000e-02,7.165313e-02,1.433063e+00,76,45,3.106575e-01,3.666311e-01,3.334974e-02,8.332471e-02,7.244409e-06,4.000000e-01,34,1,3,1,1,2,3,5.921400e-01,1,1,Right,Right,Right,Vertical,Target primed,Right,None,Main study,C
1,1,7,2,5.000000e-02,7.165313e-02,1.433063e+00,76,35,3.185695e-01,2.666896e-01,1.333477e-01,8.333014e-02,7.546158e-06,4.000000e-01,134,0,2,1,1,2,3,6.754783e-01,1,1,Right,Left,Right,Vertical,Foil primed,Right,None,Main study,C
1,1,7,2,5.000000e-02,7.165313e-02,1.433063e+00,76,55,3.106831e-01,3.917277e-01,8.366338e-03,8.330358e-02,7.244293e-06,4.000000e-01,8,1,2,0,0,2,3,6.671189e-01,1,0,Right,Right,Left,Vertical,Foil primed,Left,None,Main study,C
1,1,7,2,5.000000e-02,7.165313e-02,1.433063e+00,76,35,3.186386e-01,3.917666e-01,8.336455e-03,8.331927e-02,7.244409e-06,4.000000e-01,8,0,3,0,0,2,3,5.170661e-01,0,1,Left,Left,Left,Vertical,Target primed,Left,None,Main study,C
1,1,7,2,5.000000e-02,7.165313e-02,1.433063e+00,76,40,3.188324e-01,2.666860e-01,1.333582e-01,8.332591e-02,7.546158e-06,4.000000e-01,134,1,2,0,0,2,3,5.671636e-01,0,1,Left,Right,Left,Vertical,Foil primed,Left,None,Main study,C
1,1,7,2,5.000000e-02,7.165313e-02,1.433063e+00,76,35,3.106230e-01,3.666781e-01,3.334522e-02,8.333316e-02,7.546274e-06,4.000000e-01,34,1,2,0,0,2,3,9.755032e-01,0,1,Left,Right,Left,Vertical,Foil primed,Left,None,Main study,C
1,1,7,2,5.000000e-02,7.165313e-02,1.433063e+00,76,55,3.186217e-01,3.917005e-01,8.333738e-03,8.333587e-02,7.244293e-06,4.000000e-01,8,0,2,1,1,2,3,7.421537e-01,1,1,Right,Left,Right,Vertical,Foil primed,Right,None,Main study,C
1,1,7,2,5.000000e-02,7.165313e-02,1.433063e+00,76,50,3.186794e-01,2.667077e-01,1.333274e-01,8.334010e-02,7.546158e-06,4.000000e-01,134,1,3,1,1,2,3,7.504916e-01,0,0,Left,Right,Right,Vertical,Target primed,Right,None,Main study,C
1,1,7,2,5.000000e-02,7.165313e-02,1.433063e+00,76,45,3.187265e-01,2.666766e-01,1.333229e-01,8.334282e-02,7.244293e-06,4.000000e-01,134,0,3,0,0,2,3,7.004699e-01,0,1,Left,Left,Left,Vertical,Target primed,Left,None,Main study,C
1,1,7,2,5.000000e-02,7.165313e-02,1.433063e+00,76,40,3.187072e-01,3.917165e-01,8.317740e-03,8.334191e-02,7.546274e-06,4.000000e-01,8,1,2,0,0,2,3,6.254753e-01,0,1,Left,Right,Left,Vertical,Foil primed,Left,None,Main study,C
1,1,7,2,5.000000e-02,7.165313e-02,1.433063e+00,76,55,3.187518e-01,3.667494e-01,3.333797e-02,8.334161e-02,7.244293e-06,4.000000e-01,34,0,3,0,0,2,3,7.087713e-01,1,0,Right,Left,Left,Vertical,Target primed,Left,None,Main study,C
1,1,7,2,5.000000e-02,7.165313e-02,1.433063e+00,76,35,3.187011e-01,3.917397e-01,8.337964e-03,8.332471e-02,7.546274e-06,4.000000e-01,8,1,3,1,1,2,3,7.087934e-01,0,0,Left,Right,Right,Vertical,Target primed,Right,None,Main study,C
1,1,7,2,5.000000e-02,7.165313e-02,1.433063e+00,76,35,3.185858e-01,3.916785e-01,8.353962e-03,8.331444e-02,7.546158e-06,4.000000e-01,8,1,3,1,1,2,3,5.171602e-01,0,0,Left,Right,Right,Vertical,Target primed,Right,None,Main study,C
1,1,7,2,5.000000e-02,7.165313e-02,1.433063e+00,76,45,3.189203e-01,3.666884e-01,3.337087e-02,8.332018e-02,7.244293e-06,4.000000e-01,34,0,2,1,1,2,3,6.504327e-01,1,1,Right,Left,Right,Vertical,Foil primed,Right,None,Main study,C
1,1,7,2,5.000000e-02,7.165313e-02,1.433063e+00,76,55,3.188626e-01,3.666440e-01,3.333978e-02,8.334010e-02,7.546158e-06,4.000000e-01,34,1,3,1,1,2,3,6.254545e-01,1,1,Right,Right,Right,Vertical,Target primed,Right,None,Main study,C
1,1,7,2,5.000000e-02,7.165313e-02,1.433063e+00,76,50,3.168906e-01,3.667147e-01,3.329813e-02,8.338719e-02,7.546274e-06,4.000000e-01,34,1,2,0,0,2,3,5.254563e-01,0,1,Left,Right,Left,Vertical,Foil primed,Left,None,Main study,C
1,1,7,2,5.000000e-02,7.165313e-02,1.433063e+00,76,45,3.106300e-01,3.916926e-01,8.335549e-03,8.332501e-02,7.546158e-06,4.000000e-01,8,1,2,0,0,2,3,6.337725e-01,0,1,Left,Right,Left,Vertical,Foil primed,Left,None,Main study,C
1,1,7,2,5.000000e-02,7.165313e-02,1.433063e+00,76,50,3.187600e-01,3.917089e-01,8.331625e-03,8.334191e-02,7.848023e-06,4.000000e-01,8,0,2,1,1,2,3,5.671234e-01,1,1,Right,Left,Right,Vertical,Foil primed,Right,None,Main study,C
1,1,7,2,5.000000e-02,7.165313e-02,1.433063e+00,76,35,3.186948e-01,2.667095e-01,1.333878e-01,8.332923e-02,7.244293e-06,4.000000e-01,134,0,2,1,1,2,3,9.338423e-01,0,0,Left,Left,Right,Vertical,Foil primed,Right,None,Main study,C
1,1,7,2,5.000000e-02,7.165313e-02,1.433063e+00,76,35,3.187503e-01,2.666419e-01,1.333923e-01,8.328124e-02,7.546274e-06,4.000000e-01,134,0,3,0,0,2,3,7.839057e-01,1,0,Right,Left,Left,Vertical,Target primed,Left,None,Main study,C
1,1,7,2,5.000000e-02,7.165313e-02,1.433063e+00,76,45,3.187017e-01,2.666893e-01,1.333205e-01,8.330478e-02,7.244409e-06,4.000000e-01,134,1,2,0,0,2,3,5.421633e-01,0,1,Left,Right,Left,Vertical,Foil primed,Left,None,Main study,C
1,1,7,2,5.000000e-02,7.165313e-02,1.433063e+00,76,45,3.189248e-01,3.666960e-01,3.333737e-02,8.334493e-02,7.546274e-06,4.000000e-01,34,0,2,1,1,2,3,5.754623e-01,1,1,Right,Left,Right,Vertical,Foil primed,Right,None,Main study,C
1,1,7,2,5.000000e-02,7.165313e-02,1.433063e+00,76,40,3.188602e-01,3.917074e-01,8.369356e-03,8.335157e-02,7.546158e-06,4.000000e-01,8,1,2,0,0,2,3,9.254564e-01,1,0,Right,Right,Left,Vertical,Foil primed,Left,None,Main study,C
1,1,7,2,5.000000e-02,7.165313e-02,1.433063e+00,76,50,3.186386e-01,3.667044e-01,3.332982e-02,8.333768e-02,7.546274e-06,4.000000e-01,34,1,3,1,1,2,3,8.671929e-01,1,1,Right,Right,Right,Vertical,Target primed,Right,None,Main study,C
1,1,7,2,5.000000e-02,7.165313e-02,1.433063e+00,76,55,3.186079e-01,3.916794e-01,8.347925e-03,8.335942e-02,7.244409e-06,4.000000e-01,8,1,2,0,0,2,3,5.004224e-01,0,1,Left,Right,Left,Vertical,Foil primed,Left,None,Main study,C
1,1,7,2,5.000000e-02,7.165313e-02,1.433063e+00,76,50,3.187271e-01,3.917385e-01,8.337964e-03,8.334795e-02,7.244409e-06,4.000000e-01,8,1,2,0,0,2,3,1.183828e+00,0,1,Left,Right,Left,Vertical,Foil primed,Left,None,Main study,C
1,1,7,2,5.000000e-02,7.165313e-02,1.433063e+00,76,55,3.184249e-01,2.667183e-01,1.333480e-01,8.334191e-02,7.244409e-06,4.000000e-01,134,0,2,1,1,2,3,1.008792e+00,1,1,Right,Left,Right,Vertical,Foil primed,Right,None,Main study,C
1,1,8,2,5.000000e-02,7.165313e-02,1.433063e+00,76,50,3.153871e-01,2.666929e-01,1.333661e-01,8.334040e-02,7.244409e-06,4.000000e-01,134,0,3,0,0,2,3,6.584613e-01,1,0,Right,Left,Left,Vertical,Target primed,Left,None,Main study,C
1,1,8,2,5.000000e-02,7.165313e-02,1.433063e+00,76,55,3.106369e-01,2.666875e-01,1.332770e-01,8.342311e-02,7.244293e-06,4.000000e-01,134,1,3,1,1,2,3,6.087517e-01,1,1,Right,Right,Right,Vertical,Target primed,Right,None,Main study,C
1,1,8,2,5.000000e-02,7.165313e-02,1.433063e+00,76,50,3.105838e-01,2.666772e-01,1.333649e-01,8.333074e-02,7.546274e-06,4.000000e-01,134,0,3,0,0,2,3,6.088468e-01,0,1,Left,Left,Left,Vertical,Target primed,Left,None,Main study,C
1,1,8,2,5.000000e-02,7.165313e-02,1.433063e+00,76,40,3.187850e-01,3.667355e-01,3.333646e-02,8.337119e-02,9.659212e-06,4.000000e-01,34,0,3,0,0,2,3,5.754846e-01,0,1,Left,Left,Left,Vertical,Target primed,Left,None,Main study,C
1,1,8,2,5.000000e-02,7.165313e-02,1.433063e+00,76,50,3.189408e-01,2.666995e-01,1.333356e-01,8.333738e-02,7.244293e-06,4.000000e-01,134,0,3,0,0,2,3,7.754747e-01,1,0,Right,Left,Left,Vertical,Target primed,Left,None,Main study,C
1,1,8,2,5.000000e-02,7.165313e-02,1.433063e+00,76,35,3.187093e-01,3.916525e-01,8.347925e-03,8.333738e-02,7.546158e-06,4.000000e-01,8,1,2,0,0,2,3,5.337954e-01,0,1,Left,Right,Left,Vertical,Foil primed,Left,None,Main study,C
1,1,8,2,5.000000e-02,7.165313e-02,1.433063e+00,76,35,3.188708e-01,3.917729e-01,8.303252e-03,8.339836e-02,9.055482e-06,4.000000e-01,8,0,2,1,1,2,3,5.337028e-01,1,1,Right,Left,Right,Vertical,Foil primed,Right,None,Main study,C
1,1,8,2,5.000000e-02,7.165313e-02,1.433063e+00,76,50,3.188985e-01,2.667312e-01,1.333404e-01,8.332652e-02,7.546158e-06,4.000000e-01,134,0,3,0,0,2,3,1.125480e+00,1,0,Right,Left,Left,Vertical,Target primed,Left,None,Main study,C
1,1,8,2,5.000000e-02,7.165313e-02,1.433063e+00,76,45,3.184817e-01,3.666682e-01,3.333163e-02,8.333618e-02,7.546274e-06,4.000000e-01,34,0,2,1,1,2,3,5.588012e-01,0,0,Left,Left,Right,Vertical,Foil primed,Right,None,Main study,C
1,1,8,2,5.000000e-02,7.165313e-02,1.433063e+00,76,55,3.106487e-01,3.666821e-01,3.335457e-02,8.331957e-02,7.546274e-06,4.000000e-01,34,1,2,0,0,2,3,8.004920e-01,1,0,Right,Right,Left,Vertical,Foil primed,Left,None,Main study,C
1,1,8,2,5.000000e-02,7.165313e-02,1.433063e+00,76,35,3.186860e-01,2.666863e-01,1.333579e-01,8.332772e-02,7.546158e-06,4.000000e-01,134,1,3,1,1,2,3,5.254288e-01,0,0,Left,Right,Right,Vertical,Target primed,Right,None,Main study,C
1,1,8,2,5.000000e-02,7.165313e-02,1.433063e+00,76,45,3.188007e-01,3.666981e-01,3.335035e-02,8.333406e-02,7.848139e-06,4.000000e-01,34,0,3,0,0,2,3,1.075488e+00,0,1,Left,Left,Left,Vertical,Target primed,Left,None,Main study,C
1,1,8,2,5.000000e-02,7.165313e-02,1.433063e+00,76,40,3.185879e-01,3.917105e-01,8.319551e-03,8.335187e-02,7.546158e-06,4.000000e-01,8,0,3,0,0,2,3,7.004780e-01,0,1,Left,Left,Left,Vertical,Target primed,Left,None,Main study,C
1,1,8,2,5.000000e-02,7.165313e-02,1.433063e+00,76,45,3.188644e-01,3.666872e-01,3.334974e-02,8.333467e-02,7.244409e-06,4.000000e-01,34,1,3,1,1,2,3,6.587867e-01,1,1,Right,Right,Right,Vertical,Target primed,Right,None,Main study,C
1,1,8,2,5.000000e-02,7.165313e-02,1.433063e+00,76,45,3.169211e-01,3.667038e-01,3.332952e-02,8.333527e-02,7.546158e-06,4.000000e-01,34,1,2,0,0,2,3,5.921322e-01,0,1,Left,Right,Left,Vertical,Foil primed,Left,None,Main study,C
1,1,8,2,5.000000e-02,7.165313e-02,1.433063e+00,76,35,3.186115e-01,2.666911e-01,1.334171e-01,8.327732e-02,7.546274e-06,4.000000e-01,134,0,2,1,1,2,3,6.588450e-01,1,1,Right,Left,Right,Vertical,Foil primed,Right,None,Main study,C
1,1,8,2,5.000000e-02,7.165313e-02,1.433063e+00,76,35,3.187268e-01,3.666625e-01,3.332469e-02,8.335278e-02,1.116842e-05,4.000000e-01,34,0,2,1,1,2,3,8.004391e-01,0,0,Left,Left,Right,Vertical,Foil primed,Right,None,Main study,C
1,1,8,2,5.000000e-02,7.165313e-02,1.433063e+00,76,50,3.187527e-01,2.666781e-01,1.333136e-01,8.334251e-02,8.451752e-06,4.000000e-01,134,1,3,1,1,2,3,5.754376e-01,1,1,Right,Right,Right,Vertical,Target primed,Right,None,Main study,C
1,1,8,2,5.000000e-02,7.165313e-02,1.433063e+00,76,35,3.188560e-01,3.917304e-01,8.323777e-03,8.336304e-02,7.244293e-06,4.000000e-01,8,0,3,0,0,2,3,6.087517e-01,0,1,Left,Left,Left,Vertical,Target primed,Left,None,Main study,C
1,1,8,2,5.000000e-02,7.165313e-02,1.433063e+00,76,40,3.188729e-01,3.916993e-01,8.335851e-03,8.338447e-02,8.753617e-06,4.000000e-01,8,0,2,1,1,2,3,6.920999e-01,1,1,Right,Left,Right,Vertical,Foil primed,Right,None,Main study,C
1,1,8,2,5.000000e-02,7.165313e-02,1.433063e+00,76,45,3.189314e-01,3.666652e-01,3.333827e-02,8.333768e-02,7.244409e-06,4.000000e-01,34,0,2,1,1,2,3,8.588508e-01,1,1,Right,Left,Right,Vertical,Foil primed,Right,None,Main study,C
1,1,8,2,5.000000e-02,7.165313e-02,1.433063e+00,76,35,3.186465e-01,3.666872e-01,3.334673e-02,8.333648e-02,7.244409e-06,4.000000e-01,34,0,3,0,0,2,3,7.504455e-01,0,1,Left,Left,Left,Vertical,Target primed,Left,None,Main study,C
1,1,8,2,5.000000e-02,7.165313e-02,1.433063e+00,76,35,3.186552e-01,3.666887e-01,3.334733e-02,8.333919e-02,7.546274e-06,4.000000e-01,34,0,2,1,1,2,3,1.008824e+00,1,1,Right,Left,Right,Vertical,Foil primed,Right,None,Main study,C
1,1,8,2,5.000000e-02,7.165313e-02,1.433063e+00,76,50,3.184717e-01,2.667273e-01,1.333389e-01,8.336395e-02,9.659212e-06,4.000000e-01,134,0,2,1,1,2,3,1.033801e+00,1,1,Right,Left,Right,Vertical,Foil primed,Right,None,Main study,C
1,1,8,2,5.000000e-02,7.165313e-02,1.433063e+00,76,50,3.187699e-01,3.916456e-01,8.334644e-03,8.334704e-02,9.055482e-06,4.000000e-01,8,1,3,1,1,2,3,7.837191e-01,1,1,Right,Right,Right,Vertical,Target primed,Right,None,Main study,C
1,1,8,2,5.000000e-02,7.165313e-02,1.433063e+00,76,35,3.187974e-01,3.666827e-01,3.334944e-02,8.333678e-02,7.244293e-06,4.000000e-01,34,0,2,1,1,2,3,7.671742e-01,0,0,Left,Left,Right,Vertical,Foil primed,Right,None,Main study,C
1,1,8,2,5.000000e-02,7.165313e-02,1.433063e+00,76,35,3.187618e-01,3.666875e-01,3.334522e-02,8.332682e-02,7.546158e-06,4.000000e-01,34,0,3,0,0,2,3,6.338181e-01,0,1,Left,Left,Left,Vertical,Target primed,Left,None,Main study,C
1,1,8,2,5.000000e-02,7.165313e-02,1.433063e+00,76,45,3.188119e-01,2.666941e-01,1.334433e-01,8.324109e-02,7.546158e-06,4.000000e-01,134,0,3,0,0,2,3,6.004729e-01,1,0,Right,Left,Left,Vertical,Target primed,Left,None,Main study,C
1,1,8,2,5.000000e-02,7.165313e-02,1.433063e+00,76,55,3.187784e-01,2.666657e-01,1.333920e-01,8.333980e-02,9.357347e-06,4.000000e-01,134,0,3,0,0,2,3,9.254757e-01,1,0,Right,Left,Left,Vertical,Target primed,Left,None,Main study,C
1,1,8,2,5.000000e-02,7.165313e-02,1.433063e+00,76,50,3.185481e-01,2.666956e-01,1.333791e-01,8.330358e-02,7.546158e-06,4.000000e-01,134,1,3,1,1,2,3,7.421766e-01,1,1,Right,Right,Right,Vertical,Target primed,Right,None,Main study,C
1,1,8,2,5.000000e-02,7.165313e-02,1.433063e+00,76,35,3.187808e-01,2.667530e-01,1.333434e-01,8.324200e-02,7.546158e-06,4.000000e-01,134,1,2,0,0,2,3,8.088583e-01,0,1,Left,Right,Left,Vertical,Foil primed,Left,None,Main study,C
1,1,8,2,5.000000e-02,7.165313e-02,1.433063e+00,76,35,3.186471e-01,2.667068e-01,1.333271e-01,8.333708e-02,7.546158e-06,4.000000e-01,134,1,2,0,0,2,3,6.254705e-01,0,1,Left,Right,Left,Vertical,Foil primed,Left,None,Main study,C
1,1,8,2,5.000000e-02,7.165313e-02,1.433063e+00,76,50,3.186878e-01,3.916942e-01,8.334040e-03,8.334402e-02,7.244293e-06,4.000000e-01,8,1,3,1,1,2,3,7.504898e-01,1,1,Right,Right,Right,Vertical,Target primed,Right,None,Main study,C
1,1,8,2,5.000000e-02,7.165313e-02,1.433063e+00,76,45,3.187518e-01,2.666875e-01,1.333519e-01,8.333225e-02,7.546274e-06,4.000000e-01,134,0,3,0,0,2,3,1.167192e+00,0,1,Left,Left,Left,Vertical,Target primed,Left,None,Main study,C
1,1,8,2,5.000000e-02,7.165313e-02,1.433063e+00,76,55,3.186060e-01,2.666766e-01,1.333881e-01,8.333497e-02,7.546158e-06,4.000000e-01,134,1,3,1,1,2,3,6.670900e-01,1,1,Right,Right,Right,Vertical,Target primed,Right,None,Main study,C
1,1,8,2,5.000000e-02,7.165313e-02,1.433063e+00,76,45,3.106046e-01,3.916969e-01,8.337059e-03,8.334402e-02,7.546158e-06,4.000000e-01,8,1,2,0,0,2,3,6.170912e-01,0,1,Left,Right,Left,Vertical,Foil primed,Left,None,Main study,C
1,1,8,2,5.000000e-02,7.165313e-02,1.433063e+00,76,55,3.187802e-01,3.666757e-01,3.334823e-02,8.332803e-02,7.244409e-06,4.000000e-01,34,1,3,1,1,2,3,4.588023e-01,1,1,Right,Right,Right,Vertical,Target primed,Right,None,Main study,C
1,1,8,2,5.000000e-02,7.165313e-02,1.433063e+00,76,45,3.187582e-01,3.916573e-01,8.335248e-03,8.333497e-02,7.546158e-06,4.000000e-01,8,0,2,1,1,2,3,4.754599e-01,1,1,Right,Left,Right,Vertical,Foil primed,Right,None,Main study,C
1,1,8,2,5.000000e-02,7.165313e-02,1.433063e+00,76,50,3.186703e-01,3.666670e-01,3.334612e-02,8.333859e-02,7.848023e-06,4.000000e-01,34,1,3,1,1,2,3,7.754974e-01,1,1,Right,Right,Right,Vertical,Target primed,Right,None,Main study,C
1,1,8,2,5.000000e-02,7.165313e-02,1.433063e+00,76,50,3.187192e-01,3.916969e-01,8.339172e-03,8.337813e-02,7.546158e-06,4.000000e-01,8,1,2,0,0,2,3,4.754209e-01,1,0,Right,Right,Left,Vertical,Foil primed,Left,None,Main study,C
1,1,8,2,5.000000e-02,7.165313e-02,1.433063e+00,76,35,3.187470e-01,3.666932e-01,3.333827e-02,8.335731e-02,7.244409e-06,4.000000e-01,34,0,2,1,1,2,3,6.420996e-01,1,1,Right,Left,Right,Vertical,Foil primed,Right,None,Main study,C
1,1,8,2,5.000000e-02,7.165313e-02,1.433063e+00,76,40,3.187708e-01,3.916963e-01,8.356377e-03,8.331776e-02,7.244409e-06,4.000000e-01,8,0,2,1,1,2,3,6.504500e-01,0,0,Left,Left,Right,Vertical,Foil primed,Right,None,Main study,C
1,1,8,2,5.000000e-02,7.165313e-02,1.433063e+00,76,40,3.188620e-01,3.667059e-01,3.333737e-02,8.333799e-02,7.546158e-06,4.000000e-01,34,0,3,0,0,2,3,7.754458e-01,0,1,Left,Left,Left,Vertical,Target primed,Left,None,Main study,C
1,1,8,2,5.000000e-02,7.165313e-02,1.433063e+00,76,35,3.185532e-01,2.667282e-01,1.333769e-01,8.334070e-02,7.546158e-06,4.000000e-01,134,0,2,1,1,2,3,5.837954e-01,1,1,Right,Left,Right,Vertical,Foil primed,Right,None,Main study,C
1,1,8,2,5.000000e-02,7.165313e-02,1.433063e+00,76,35,3.186712e-01,3.916972e-01,8.336757e-03,8.334946e-02,7.546274e-06,4.000000e-01,8,1,3,1,1,2,3,5.337987e-01,1,1,Right,Right,Right,Vertical,Target primed,Right,None,Main study,C
1,1,8,2,5.000000e-02,7.165313e-02,1.433063e+00,76,50,3.187802e-01,2.666808e-01,1.333468e-01,8.333648e-02,7.244409e-06,4.000000e-01,134,1,3,1,1,2,3,1.050518e+00,0,0,Left,Right,Right,Vertical,Target primed,Right,None,Main study,C
1,1,8,2,5.000000e-02,7.165313e-02,1.433063e+00,76,50,3.186175e-01,3.916993e-01,8.335550e-03,8.334010e-02,7.546158e-06,4.000000e-01,8,1,2,0,0,2,3,6.671859e-01,1,0,Right,Right,Left,Vertical,Foil primed,Left,None,Main study,C
1,1,8,2,5.000000e-02,7.165313e-02,1.433063e+00,76,35,3.188249e-01,3.917406e-01,8.335248e-03,8.333527e-02,7.244293e-06,4.000000e-01,8,1,3,1,1,2,3,6.004448e-01,1,1,Right,Right,Right,Vertical,Target primed,Right,None,Main study,C
1,1,8,2,5.000000e-02,7.165313e-02,1.433063e+00,76,50,3.188216e-01,2.666757e-01,1.333407e-01,8.333799e-02,7.244409e-06,4.000000e-01,134,1,3,1,1,2,3,9.421507e-01,0,0,Left,Right,Right,Vertical,Target primed,Right,None,Main study,C
1,1,8,2,5.000000e-02,7.165313e-02,1.433063e+00,76,35,3.186712e-01,2.667014e-01,1.333247e-01,8.332440e-02,7.546158e-06,4.000000e-01,134,1,2,0,0,2,3,7.004635e-01,0,1,Left,Right,Left,Vertical,Foil primed,Left,None,Main study,C
1,1,8,2,5.000000e-02,7.165313e-02,1.433063e+00,76,35,3.185928e-01,2.666875e-01,1.333471e-01,8.333587e-02,7.546158e-06,4.000000e-01,134,0,3,0,0,2,3,1.033854e+00,1,0,Right,Left,Left,Vertical,Target primed,Left,None,Main study,C
1,1,8,2,5.000000e-02,7.165313e-02,1.433063e+00,76,50,3.185882e-01,2.666944e-01,1.333407e-01,8.333648e-02,7.244409e-06,4.000000e-01,134,1,3,1,1,2,3,5.921585e-01,1,1,Right,Right,Right,Vertical,Target primed,Right,None,Main study,C
1,1,8,2,5.000000e-02,7.165313e-02,1.433063e+00,76,40,3.185571e-01,3.666978e-01,3.333737e-02,8.333708e-02,7.546158e-06,4.000000e-01,34,1,2,0,0,2,3,5.588075e-01,0,1,Left,Right,Left,Vertical,Foil primed,Left,None,Main study,C
1,1,8,2,5.000000e-02,7.165313e-02,1.433063e+00,76,45,3.187407e-01,3.916419e-01,8.402862e-03,8.328214e-02,7.244293e-06,4.000000e-01,8,1,3,1,1,2,3,5.588042e-01,1,1,Right,Right,Right,Vertical,Target primed,Right,None,Main study,C
1,1,8,2,5.000000e-02,7.165313e-02,1.433063e+00,76,55,3.186987e-01,2.667403e-01,1.333724e-01,8.330991e-02,7.244409e-06,4.000000e-01,134,1,3,1,1,2,3,1.133816e+00,1,1,Right,Right,Right,Vertical,Target primed,Right,None,Main study,C
1,1,8,2,5.000000e-02,7.165313e-02,1.433063e+00,76,45,3.186045e-01,2.667484e-01,1.333142e-01,8.333708e-02,7.244293e-06,4.000000e-01,134,1,3,1,1,2,3,5.671225e-01,1,1,Right,Right,Right,Vertical,Target primed,Right,None,Main study,C
1,1,8,2,5.000000e-02,7.165313e-02,1.433063e+00,76,35,3.189136e-01,2.667225e-01,1.332619e-01,8.338719e-02,1.841283e-05,4.000000e-01,134,1,3,1,1,2,3,6.504231e-01,1,1,Right,Right,Right,Vertical,Target primed,Right,None,Main study,C
1,1,8,2,5.000000e-02,7.165313e-02,1.433063e+00,76,50,3.188388e-01,3.667536e-01,3.332197e-02,8.332712e-02,7.244409e-06,4.000000e-01,34,0,2,1,1,2,3,6.420700e-01,1,1,Right,Left,Right,Vertical,Foil primed,Right,None,Main study,C
1,1,8,2,5.000000e-02,7.165313e-02,1.433063e+00,76,45,3.187011e-01,2.666851e-01,1.333585e-01,8.338658e-02,9.357347e-06,4.000000e-01,134,0,2,1,1,2,3,4.920419e-01,1,1,Right,Left,Right,Vertical,Foil primed,Right,None,Main study,C
1,1,8,2,5.000000e-02,7.165313e-02,1.433063e+00,76,35,3.188671e-01,2.666494e-01,1.333341e-01,8.332380e-02,7.546158e-06,4.000000e-01,134,0,3,0,0,2,3,6.171657e-01,0,1,Left,Left,Left,Vertical,Target primed,Left,None,Main study,C
1,1,9,2,5.000000e-02,7.165313e-02,1.433063e+00,76,45,3.126569e-01,3.916884e-01,8.359697e-03,8.333316e-02,7.244409e-06,4.000000e-01,8,1,3,1,1,2,3,4.584362e-01,1,1,Right,Right,Right,Vertical,Target primed,Right,None,Main study,C
1,1,9,2,5.000000e-02,7.165313e-02,1.433063e+00,76,50,3.106230e-01,2.667107e-01,1.332966e-01,8.340470e-02,9.357231e-06,4.000000e-01,134,0,3,0,0,2,3,6.337589e-01,0,1,Left,Left,Left,Vertical,Target primed,Left,None,Main study,C
1,1,9,2,5.000000e-02,7.165313e-02,1.433063e+00,76,35,3.187859e-01,3.666649e-01,3.334763e-02,8.332863e-02,7.546274e-06,4.000000e-01,34,0,2,1,1,2,3,4.337601e-01,1,1,Right,Left,Right,Vertical,Foil primed,Right,None,Main study,C
1,1,9,2,5.000000e-02,7.165313e-02,1.433063e+00,76,35,3.187666e-01,2.666576e-01,1.333603e-01,8.334251e-02,7.848139e-06,4.000000e-01,134,0,2,1,1,2,3,4.921035e-01,1,1,Right,Left,Right,Vertical,Foil primed,Right,None,Main study,C
1,1,9,2,5.000000e-02,7.165313e-02,1.433063e+00,76,50,3.188828e-01,3.666957e-01,3.333767e-02,8.333467e-02,7.244409e-06,4.000000e-01,34,0,2,1,1,2,3,4.755009e-01,1,1,Right,Left,Right,Vertical,Foil primed,Right,None,Main study,C
1,1,9,2,5.000000e-02,7.165313e-02,1.433063e+00,76,50,3.106342e-01,3.666881e-01,3.334340e-02,8.333074e-02,7.244409e-06,4.000000e-01,34,0,3,0,0,2,3,7.171682e-01,0,1,Left,Left,Left,Vertical,Target primed,Left,None,Main study,C
1,1,9,2,5.000000e-02,7.165313e-02,1.433063e+00,76,40,3.187687e-01,2.666558e-01,1.333594e-01,8.333497e-02,7.546274e-06,4.000000e-01,134,0,3,0,0,2,3,8.504923e-01,0,1,Left,Left,Left,Vertical,Target primed,Left,None,Main study,C
1,1,9,2,5.000000e-02,7.165313e-02,1.433063e+00,76,35,3.187035e-01,3.916688e-01,8.335851e-03,8.336696e-02,7.546158e-06,4.000000e-01,8,1,2,0,0,2,3,6.671220e-01,0,1,Left,Right,Left,Vertical,Foil primed,Left,None,Main study,C
