Subject,Trial,Block,Block_type,Foil_contrast,Target_contrast,Target_to_foil_contrast,Max_illuminance,Angle,Fixation_time,Placeholder_time,Prime_time,Target_time,Mask_time,Feedback_time,Prime_duration,Prime_rotation,Prime_type,Target_rotation,Correct_answer,Choice_rotation,Choice_display,RT,Choice,Accuracy,Choice_label,Prime_rotation_label,Target_rotation_label,Choice_rotation_label,Prime_type_label,Correct_answer_label,Onscreen_choices_labels,Block_type_label,Experiment
5,1,1,-2,5.000000e-02,2.500000e-01,5,76,55,1.950064e-02,4.000682e-01,1.000022e-01,2.830414e-01,7.847790e-06,4.000000e-01,100,2,1,0,0,2,3,2.313081e+00,0,1,Left,Vertical,Left,Vertical,Neither,Left,None,Guided practice,C
5,1,1,-2,5.000000e-02,2.500000e-01,5,76,40,1.747949e-02,4.000389e-01,1.000106e-01,2.833743e-01,8.149771e-06,4.000000e-01,100,2,1,1,1,2,3,8.408705e-01,1,1,Right,Vertical,Right,Vertical,Neither,Right,None,Guided practice,C
5,1,1,-2,5.000000e-02,2.500000e-01,5,76,45,1.829387e-02,4.000697e-01,1.000109e-01,2.833505e-01,7.848023e-06,4.000000e-01,100,2,1,1,1,2,3,4.755247e-01,1,1,Right,Vertical,Right,Vertical,Neither,Right,None,Guided practice,C
5,1,1,-2,5.000000e-02,2.500000e-01,5,76,40,1.839378e-02,4.000766e-01,1.000064e-01,2.833369e-01,8.150004e-06,4.000000e-01,100,2,1,1,1,2,3,1.504512e-01,1,1,Right,Vertical,Right,Vertical,Neither,Right,None,Guided practice,C
5,1,1,-2,5.000000e-02,2.500000e-01,5,76,40,1.050448e-02,4.000540e-01,1.000118e-01,2.833514e-01,7.546041e-06,4.000000e-01,100,2,1,0,0,2,3,2.170830e-01,0,1,Left,Vertical,Left,Vertical,Neither,Left,None,Guided practice,C
5,1,2,-1,5.000000e-02,2.500000e-01,5,76,45,3.157884e-01,3.000316e-01,1.000049e-01,8.333313e-02,7.546274e-06,4.000000e-01,100,2,1,0,0,2,3,6.251509e-01,0,1,Left,Vertical,Left,Vertical,Neither,Left,None,Exclusion practice,C
5,1,2,-1,5.000000e-02,2.500000e-01,5,76,50,3.182919e-01,3.000159e-01,1.000278e-01,8.337901e-02,7.546041e-06,4.000000e-01,100,2,1,0,0,2,3,7.504660e-01,0,1,Left,Vertical,Left,Vertical,Neither,Left,None,Exclusion practice,C
5,1,2,-1,5.000000e-02,2.500000e-01,5,76,40,3.189140e-01,3.000080e-01,1.000278e-01,8.332136e-02,7.847790e-06,4.000000e-01,100,2,1,0,0,2,3,4.504713e-01,0,1,Left,Vertical,Left,Vertical,Neither,Left,None,Exclusion practice,C
5,1,2,-1,5.000000e-02,2.500000e-01,5,76,45,3.106791e-01,3.000014e-01,1.000767e-01,8.327186e-02,7.546041e-06,4.000000e-01,100,2,1,0,0,2,3,3.671647e-01,0,1,Left,Vertical,Left,Vertical,Neither,Left,None,Exclusion practice,C
5,1,2,-1,5.000000e-02,2.500000e-01,5,76,45,3.107329e-01,3.000038e-01,1.000127e-01,8.333857e-02,7.546041e-06,4.000000e-01,100,2,1,0,0,2,3,5.338563e-01,0,1,Left,Vertical,Left,Vertical,Neither,Left,None,Exclusion practice,C
5,1,2,-1,5.000000e-02,2.500000e-01,5,76,55,3.188199e-01,3.000304e-01,1.000393e-01,8.330566e-02,7.847790e-06,4.000000e-01,100,2,1,0,0,2,3,4.671310e-01,0,1,Left,Vertical,Left,Vertical,Neither,Left,None,Exclusion practice,C
5,1,2,-1,5.000000e-02,2.500000e-01,5,76,45,3.188528e-01,3.000201e-01,1.000115e-01,8.334068e-02,7.244293e-06,4.000000e-01,100,2,1,1,1,2,3,6.504941e-01,0,0,Left,Vertical,Right,Vertical,Neither,Right,None,Exclusion practice,C
5,1,2,-1,5.000000e-02,2.500000e-01,5,76,45,3.187966e-01,3.000512e-01,9.999614e-02,8.337207e-02,7.847790e-06,4.000000e-01,100,2,1,1,1,2,3,4.504532e-01,1,1,Right,Vertical,Right,Vertical,Neither,Right,None,Exclusion practice,C
5,1,2,-1,5.000000e-02,2.500000e-01,5,76,40,3.106909e-01,3.000129e-01,1.000266e-01,8.327971e-02,7.848023e-06,4.000000e-01,100,2,1,0,0,2,3,4.421636e-01,0,1,Left,Vertical,Left,Vertical,Neither,Left,None,Exclusion practice,C
5,1,2,-1,5.000000e-02,2.500000e-01,5,76,55,3.106028e-01,3.000334e-01,1.000076e-01,8.334400e-02,7.546274e-06,4.000000e-01,100,2,1,1,1,2,3,3.754374e-01,1,1,Right,Vertical,Right,Vertical,Neither,Right,None,Exclusion practice,C
5,1,2,-1,5.000000e-02,2.500000e-01,5,76,40,3.107144e-01,3.000433e-01,1.000145e-01,8.332740e-02,7.848023e-06,4.000000e-01,100,2,1,0,0,2,3,2.921447e-01,0,1,Left,Vertical,Left,Vertical,Neither,Left,None,Exclusion practice,C
5,1,2,-1,5.000000e-02,2.500000e-01,5,76,45,3.108222e-01,3.000113e-01,1.000302e-01,8.333343e-02,7.244293e-06,4.000000e-01,100,2,1,0,0,2,3,4.337872e-01,0,1,Left,Vertical,Left,Vertical,Neither,Left,None,Exclusion practice,C
5,1,2,-1,5.000000e-02,2.500000e-01,5,76,45,3.107519e-01,3.000204e-01,1.000133e-01,8.335185e-02,7.546041e-06,4.000000e-01,100,2,1,0,0,2,3,3.504589e-01,0,1,Left,Vertical,Left,Vertical,Neither,Left,None,Exclusion practice,C
5,1,2,-1,5.000000e-02,2.500000e-01,5,76,50,3.106770e-01,3.000397e-01,1.000082e-01,8.334068e-02,7.546041e-06,4.000000e-01,100,2,1,0,0,2,3,4.671373e-01,0,1,Left,Vertical,Left,Vertical,Neither,Left,None,Exclusion practice,C
5,1,2,-1,5.000000e-02,2.500000e-01,5,76,45,3.186801e-01,3.000421e-01,1.000133e-01,8.336392e-02,7.546274e-06,4.000000e-01,100,2,1,0,0,2,3,3.587662e-01,0,1,Left,Vertical,Left,Vertical,Neither,Left,None,Exclusion practice,C
5,1,2,-1,5.000000e-02,2.500000e-01,5,76,50,3.106568e-01,3.000171e-01,1.000206e-01,8.333042e-02,7.546274e-06,4.000000e-01,100,2,1,1,1,2,3,3.921182e-01,1,1,Right,Vertical,Right,Vertical,Neither,Right,None,Exclusion practice,C
5,1,2,-1,5.000000e-02,2.500000e-01,5,76,50,3.188778e-01,3.000301e-01,1.000541e-01,8.331230e-02,7.546041e-06,4.000000e-01,100,2,1,0,0,2,3,3.088007e-01,0,1,Left,Vertical,Left,Vertical,Neither,Left,None,Exclusion practice,C
5,1,3,0,5.000000e-02,1.000000e-01,2,76,35,3.121506e-01,3.000443e-01,9.969942e-02,8.332921e-02,7.848023e-06,4.000000e-01,100,2,1,1,1,2,3,6.421457e-01,1,1,Right,Vertical,Right,Vertical,Neither,Right,None,Final training,C
5,1,3,0,5.000000e-02,1.000000e-01,2,76,45,3.104989e-01,3.000026e-01,1.000290e-01,8.333675e-02,7.546274e-06,4.000000e-01,100,2,1,0,0,2,3,3.837806e-01,0,1,Left,Vertical,Left,Vertical,Neither,Left,None,Final training,C
5,1,3,0,5.000000e-02,1.000000e-01,2,76,55,3.188413e-01,3.000283e-01,9.997259e-02,8.336784e-02,7.848023e-06,4.000000e-01,100,2,1,0,0,2,3,4.504484e-01,0,1,Left,Vertical,Left,Vertical,Neither,Left,None,Final training,C
5,1,3,0,5.000000e-02,1.000000e-01,2,76,55,3.189412e-01,3.000415e-01,1.000085e-01,8.333374e-02,7.848023e-06,4.000000e-01,100,2,1,1,1,2,3,3.004354e-01,1,1,Right,Vertical,Right,Vertical,Neither,Right,None,Final training,C
5,1,3,0,5.000000e-02,1.000000e-01,2,76,45,3.108041e-01,3.000301e-01,1.000034e-01,8.334641e-02,7.847790e-06,4.000000e-01,100,2,1,1,1,2,3,3.421237e-01,1,1,Right,Vertical,Right,Vertical,Neither,Right,None,Final training,C
5,1,3,0,5.000000e-02,1.000000e-01,2,76,40,3.107860e-01,3.000264e-01,1.000106e-01,8.333645e-02,7.546041e-06,4.000000e-01,100,2,1,1,1,2,3,3.254450e-01,1,1,Right,Vertical,Right,Vertical,Neither,Right,None,Final training,C
5,1,3,0,5.000000e-02,1.000000e-01,2,76,50,3.107600e-01,3.000331e-01,1.000133e-01,8.333766e-02,7.244293e-06,4.000000e-01,100,2,1,0,0,2,3,3.005082e-01,0,1,Left,Vertical,Left,Vertical,Neither,Left,None,Final training,C
5,1,3,0,5.000000e-02,1.000000e-01,2,76,40,3.107211e-01,3.000373e-01,1.000142e-01,8.333494e-02,7.546274e-06,4.000000e-01,100,2,1,1,1,2,3,3.338103e-01,1,1,Right,Vertical,Right,Vertical,Neither,Right,None,Final training,C
5,1,3,0,5.000000e-02,1.000000e-01,2,76,55,3.107996e-01,3.000129e-01,1.000145e-01,8.334189e-02,7.546041e-06,4.000000e-01,100,2,1,0,0,2,3,3.504924e-01,0,1,Left,Vertical,Left,Vertical,Neither,Left,None,Final training,C
5,1,3,0,5.000000e-02,1.000000e-01,2,76,55,3.106800e-01,3.000391e-01,1.000121e-01,8.333404e-02,8.451752e-06,4.000000e-01,100,2,1,0,0,2,3,5.170958e-01,1,0,Right,Vertical,Left,Vertical,Neither,Left,None,Final training,C
5,1,3,0,5.000000e-02,1.000000e-01,2,76,55,3.184510e-01,3.000364e-01,1.000109e-01,8.333585e-02,7.848023e-06,4.000000e-01,100,2,1,1,1,2,3,5.421181e-01,1,1,Right,Vertical,Right,Vertical,Neither,Right,None,Final training,C
5,1,3,0,5.000000e-02,1.000000e-01,2,76,45,3.187794e-01,3.000406e-01,1.000037e-01,8.333464e-02,7.546041e-06,4.000000e-01,100,2,1,1,1,2,3,3.838102e-01,1,1,Right,Vertical,Right,Vertical,Neither,Right,None,Final training,C
5,1,3,0,5.000000e-02,1.000000e-01,2,76,55,3.107736e-01,3.000446e-01,9.999644e-02,8.331532e-02,7.546041e-06,4.000000e-01,100,2,1,0,0,2,3,4.171568e-01,0,1,Left,Vertical,Left,Vertical,Neither,Left,None,Final training,C
5,1,3,0,5.000000e-02,1.000000e-01,2,76,55,3.105952e-01,3.000322e-01,1.000212e-01,8.333615e-02,7.546041e-06,4.000000e-01,100,2,1,1,1,2,3,3.921109e-01,1,1,Right,Vertical,Right,Vertical,Neither,Right,None,Final training,C
5,1,3,0,5.000000e-02,1.000000e-01,2,76,55,3.106921e-01,3.000258e-01,1.000121e-01,8.333766e-02,7.546041e-06,4.000000e-01,100,2,1,1,1,2,3,4.254729e-01,1,1,Right,Vertical,Right,Vertical,Neither,Right,None,Final training,C
5,1,3,0,5.000000e-02,1.000000e-01,2,76,35,3.106843e-01,3.000204e-01,1.000052e-01,8.334490e-02,7.244293e-06,4.000000e-01,100,2,1,0,0,2,3,4.337884e-01,1,0,Right,Vertical,Left,Vertical,Neither,Left,None,Final training,C
5,1,3,0,5.000000e-02,1.000000e-01,2,76,55,3.106749e-01,3.000177e-01,1.000103e-01,8.334702e-02,7.546041e-06,4.000000e-01,100,2,1,1,1,2,3,7.588471e-01,1,1,Right,Vertical,Right,Vertical,Neither,Right,None,Final training,C
5,1,3,0,5.000000e-02,1.000000e-01,2,76,45,3.185038e-01,3.000412e-01,1.000001e-01,8.331563e-02,7.848023e-06,4.000000e-01,100,2,1,0,0,2,3,3.671472e-01,0,1,Left,Vertical,Left,Vertical,Neither,Left,None,Final training,C
5,1,3,0,5.000000e-02,1.000000e-01,2,76,50,3.107793e-01,3.000533e-01,1.000257e-01,8.330415e-02,7.546274e-06,4.000000e-01,100,2,1,0,0,2,3,3.504809e-01,0,1,Left,Vertical,Left,Vertical,Neither,Left,None,Final training,C
5,1,3,0,5.000000e-02,1.000000e-01,2,76,35,3.105720e-01,3.000313e-01,1.000136e-01,8.333585e-02,7.546274e-06,4.000000e-01,100,2,1,0,0,2,3,3.837610e-01,0,1,Left,Vertical,Left,Vertical,Neither,Left,None,Final training,C
5,1,3,0,5.000000e-02,7.500000e-02,1.500000e+00,76,40,3.107633e-01,3.000298e-01,1.000112e-01,8.333706e-02,7.546041e-06,4.000000e-01,100,2,1,0,0,2,3,4.671545e-01,0,1,Left,Vertical,Left,Vertical,Neither,Left,None,Final training,C
5,1,3,0,5.000000e-02,7.500000e-02,1.500000e+00,76,45,3.106121e-01,3.000246e-01,1.000124e-01,8.333706e-02,7.546041e-06,4.000000e-01,100,2,1,1,1,2,3,6.921470e-01,1,1,Right,Vertical,Right,Vertical,Neither,Right,None,Final training,C
5,1,3,0,5.000000e-02,7.500000e-02,1.500000e+00,76,40,3.187794e-01,3.000328e-01,1.000094e-01,8.333615e-02,7.546041e-06,4.000000e-01,100,2,1,0,0,2,3,5.255273e-01,1,0,Right,Vertical,Left,Vertical,Neither,Left,None,Final training,C
5,1,3,0,5.000000e-02,7.500000e-02,1.500000e+00,76,40,3.188522e-01,3.000168e-01,1.000333e-01,8.334551e-02,7.546274e-06,4.000000e-01,100,2,1,1,1,2,3,5.004485e-01,1,1,Right,Vertical,Right,Vertical,Neither,Right,None,Final training,C
5,1,3,0,5.000000e-02,7.500000e-02,1.500000e+00,76,45,3.106109e-01,3.000286e-01,1.000152e-01,8.333283e-02,7.546041e-06,4.000000e-01,100,2,1,0,0,2,3,6.171590e-01,1,0,Right,Vertical,Left,Vertical,Neither,Left,None,Final training,C
5,1,3,0,5.000000e-02,7.500000e-02,1.500000e+00,76,45,3.186955e-01,3.000286e-01,1.000118e-01,8.333555e-02,7.546274e-06,4.000000e-01,100,2,1,0,0,2,3,8.588076e-01,0,1,Left,Vertical,Left,Vertical,Neither,Left,None,Final training,C
5,1,3,0,5.000000e-02,7.500000e-02,1.500000e+00,76,55,3.185959e-01,3.000283e-01,1.000248e-01,8.330083e-02,7.848023e-06,4.000000e-01,100,2,1,1,1,2,3,5.588059e-01,1,1,Right,Vertical,Right,Vertical,Neither,Right,None,Final training,C
5,1,3,0,5.000000e-02,7.500000e-02,1.500000e+00,76,50,3.188286e-01,3.000470e-01,1.000209e-01,8.332287e-02,7.546041e-06,4.000000e-01,100,2,1,0,0,2,3,4.587850e-01,0,1,Left,Vertical,Left,Vertical,Neither,Left,None,Final training,C
5,1,3,0,5.000000e-02,7.500000e-02,1.500000e+00,76,40,3.106535e-01,3.000267e-01,1.000133e-01,8.331593e-02,7.848023e-06,4.000000e-01,100,2,1,0,0,2,3,4.337890e-01,0,1,Left,Vertical,Left,Vertical,Neither,Left,None,Final training,C
5,1,3,0,5.000000e-02,7.500000e-02,1.500000e+00,76,40,3.186852e-01,3.000509e-01,1.000426e-01,8.330144e-02,7.546041e-06,4.000000e-01,100,2,1,1,1,2,3,3.754860e-01,1,1,Right,Vertical,Right,Vertical,Neither,Right,None,Final training,C
5,1,3,0,5.000000e-02,7.500000e-02,1.500000e+00,76,45,3.106568e-01,3.000388e-01,1.000121e-01,8.333706e-02,7.244060e-06,4.000000e-01,100,2,1,0,0,2,3,5.671009e-01,0,1,Left,Vertical,Left,Vertical,Neither,Left,None,Final training,C
5,1,3,0,5.000000e-02,7.500000e-02,1.500000e+00,76,45,3.187963e-01,3.000147e-01,1.000357e-01,8.331744e-02,7.546041e-06,4.000000e-01,100,2,1,0,0,2,3,7.171449e-01,0,1,Left,Vertical,Left,Vertical,Neither,Left,None,Final training,C
5,1,3,0,5.000000e-02,7.500000e-02,1.500000e+00,76,35,3.188259e-01,3.000337e-01,1.000130e-01,8.334098e-02,7.546041e-06,4.000000e-01,100,2,1,0,0,2,3,6.337794e-01,0,1,Left,Vertical,Left,Vertical,Neither,Left,None,Final training,C
5,1,3,0,5.000000e-02,7.500000e-02,1.500000e+00,76,40,3.187366e-01,3.000355e-01,9.998286e-02,8.338988e-02,7.847790e-06,4.000000e-01,100,2,1,1,1,2,3,4.921125e-01,0,0,Left,Vertical,Right,Vertical,Neither,Right,None,Final training,C
5,1,3,0,5.000000e-02,7.500000e-02,1.500000e+00,76,50,3.187356e-01,3.000382e-01,1.000121e-01,8.332045e-02,7.848023e-06,4.000000e-01,100,2,1,1,1,2,3,5.504735e-01,1,1,Right,Vertical,Right,Vertical,Neither,Right,None,Final training,C
5,1,3,0,5.000000e-02,7.500000e-02,1.500000e+00,76,40,3.187393e-01,2.999797e-01,1.000305e-01,8.333343e-02,7.546041e-06,4.000000e-01,100,2,1,0,0,2,3,5.088045e-01,0,1,Left,Vertical,Left,Vertical,Neither,Left,None,Final training,C
5,1,3,0,5.000000e-02,7.500000e-02,1.500000e+00,76,45,3.106438e-01,3.000168e-01,1.000124e-01,8.333766e-02,7.244293e-06,4.000000e-01,100,2,1,1,1,2,3,4.171248e-01,1,1,Right,Vertical,Right,Vertical,Neither,Right,None,Final training,C
5,1,3,0,5.000000e-02,7.500000e-02,1.500000e+00,76,50,3.106658e-01,3.000554e-01,9.997078e-02,8.333675e-02,7.848023e-06,4.000000e-01,100,2,1,1,1,2,3,5.338005e-01,1,1,Right,Vertical,Right,Vertical,Neither,Right,None,Final training,C
5,1,3,0,5.000000e-02,7.500000e-02,1.500000e+00,76,35,3.105934e-01,3.000026e-01,1.000299e-01,8.333313e-02,7.546041e-06,4.000000e-01,100,2,1,0,0,2,3,6.421460e-01,0,1,Left,Vertical,Left,Vertical,Neither,Left,None,Final training,C
5,1,3,0,5.000000e-02,7.500000e-02,1.500000e+00,76,50,3.187821e-01,3.000467e-01,1.000200e-01,8.331744e-02,7.546274e-06,4.000000e-01,100,2,1,1,1,2,3,3.088333e-01,1,1,Right,Vertical,Right,Vertical,Neither,Right,None,Final training,C
5,1,3,0,5.000000e-02,6.250000e-02,1.250000e+00,76,55,3.188829e-01,3.000470e-01,1.000067e-01,8.333796e-02,7.244293e-06,4.000000e-01,100,2,1,1,1,2,3,4.004258e-01,1,1,Right,Vertical,Right,Vertical,Neither,Right,None,Final training,C
5,1,3,0,5.000000e-02,6.250000e-02,1.250000e+00,76,40,3.186750e-01,3.000120e-01,1.000103e-01,8.335637e-02,7.546041e-06,4.000000e-01,100,2,1,1,1,2,3,5.004603e-01,1,1,Right,Vertical,Right,Vertical,Neither,Right,None,Final training,C
5,1,3,0,5.000000e-02,6.250000e-02,1.250000e+00,76,55,3.188217e-01,3.000162e-01,1.000161e-01,8.333192e-02,7.546041e-06,4.000000e-01,100,2,1,1,1,2,3,7.338106e-01,0,0,Left,Vertical,Right,Vertical,Neither,Right,None,Final training,C
5,1,3,0,5.000000e-02,6.250000e-02,1.250000e+00,76,45,3.187015e-01,3.000156e-01,1.000118e-01,8.333645e-02,7.244060e-06,4.000000e-01,100,2,1,1,1,2,3,4.754897e-01,1,1,Right,Vertical,Right,Vertical,Neither,Right,None,Final training,C
5,1,3,0,5.000000e-02,6.250000e-02,1.250000e+00,76,50,3.188573e-01,3.000050e-01,1.000336e-01,8.332498e-02,7.546041e-06,4.000000e-01,100,2,1,0,0,2,3,6.421426e-01,0,1,Left,Vertical,Left,Vertical,Neither,Left,None,Final training,C
5,1,3,0,5.000000e-02,6.250000e-02,1.250000e+00,76,55,3.188573e-01,3.000436e-01,9.999523e-02,8.336905e-02,7.546041e-06,4.000000e-01,100,2,1,0,0,2,3,4.754555e-01,0,1,Left,Vertical,Left,Vertical,Neither,Left,None,Final training,C
5,1,3,0,5.000000e-02,6.250000e-02,1.250000e+00,76,55,3.187414e-01,3.000222e-01,1.000161e-01,8.333766e-02,7.847790e-06,4.000000e-01,100,2,1,1,1,2,3,6.837745e-01,1,1,Right,Vertical,Right,Vertical,Neither,Right,None,Final training,C
5,1,3,0,5.000000e-02,6.250000e-02,1.250000e+00,76,50,3.187827e-01,3.000276e-01,1.000106e-01,8.335879e-02,7.546041e-06,4.000000e-01,100,2,1,0,0,2,3,7.838201e-01,1,0,Right,Vertical,Left,Vertical,Neither,Left,None,Final training,C
5,1,3,0,5.000000e-02,6.250000e-02,1.250000e+00,76,45,3.187661e-01,3.000295e-01,1.000275e-01,8.332015e-02,7.546041e-06,4.000000e-01,100,2,1,1,1,2,3,7.255005e-01,0,0,Left,Vertical,Right,Vertical,Neither,Right,None,Final training,C
5,1,3,0,5.000000e-02,6.250000e-02,1.250000e+00,76,40,3.185708e-01,3.000415e-01,1.000079e-01,8.335456e-02,7.848023e-06,4.000000e-01,100,2,1,1,1,2,3,7.004734e-01,1,1,Right,Vertical,Right,Vertical,Neither,Right,None,Final training,C
5,1,3,0,5.000000e-02,6.250000e-02,1.250000e+00,76,40,3.187583e-01,3.000270e-01,1.000475e-01,8.330446e-02,7.847790e-06,4.000000e-01,100,2,1,1,1,2,3,6.004969e-01,1,1,Right,Vertical,Right,Vertical,Neither,Right,None,Final training,C
5,1,3,0,5.000000e-02,6.250000e-02,1.250000e+00,76,40,3.187601e-01,3.000572e-01,1.000010e-01,8.333615e-02,7.848023e-06,4.000000e-01,100,2,1,1,1,2,3,7.838041e-01,0,0,Left,Vertical,Right,Vertical,Neither,Right,None,Final training,C
5,1,3,0,5.000000e-02,6.250000e-02,1.250000e+00,76,35,3.187743e-01,3.000086e-01,1.000296e-01,8.333766e-02,7.847790e-06,4.000000e-01,100,2,1,0,0,2,3,1.133823e+00,1,0,Right,Vertical,Left,Vertical,Neither,Left,None,Final training,C
5,1,3,0,5.000000e-02,6.250000e-02,1.250000e+00,76,45,3.184628e-01,3.000258e-01,1.000091e-01,8.335849e-02,7.546041e-06,4.000000e-01,100,2,1,1,1,2,3,7.088248e-01,0,0,Left,Vertical,Right,Vertical,Neither,Right,None,Final training,C
5,1,3,0,5.000000e-02,6.250000e-02,1.250000e+00,76,50,3.187311e-01,3.000162e-01,1.000523e-01,8.331140e-02,7.848023e-06,4.000000e-01,100,2,1,0,0,2,3,8.505473e-01,0,1,Left,Vertical,Left,Vertical,Neither,Left,None,Final training,C
5,1,3,0,5.000000e-02,6.250000e-02,1.250000e+00,76,55,3.186720e-01,3.000364e-01,1.000112e-01,8.334521e-02,7.848023e-06,4.000000e-01,100,2,1,1,1,2,3,7.337955e-01,0,0,Left,Vertical,Right,Vertical,Neither,Right,None,Final training,C
5,1,3,0,5.000000e-02,6.250000e-02,1.250000e+00,76,40,3.186677e-01,3.000545e-01,1.000007e-01,8.333192e-02,7.848023e-06,4.000000e-01,100,2,1,1,1,2,3,5.837856e-01,1,1,Right,Vertical,Right,Vertical,Neither,Right,None,Final training,C
5,1,3,0,5.000000e-02,6.250000e-02,1.250000e+00,76,50,3.188929e-01,3.000123e-01,1.000290e-01,8.332166e-02,7.848023e-06,4.000000e-01,100,2,1,1,1,2,3,7.088429e-01,1,1,Right,Vertical,Right,Vertical,Neither,Right,None,Final training,C
5,1,3,0,5.000000e-02,6.250000e-02,1.250000e+00,76,55,3.187414e-01,3.000231e-01,1.000296e-01,8.332045e-02,7.847790e-06,4.000000e-01,100,2,1,1,1,2,3,3.838329e-01,1,1,Right,Vertical,Right,Vertical,Neither,Right,None,Final training,C
5,1,3,0,5.000000e-02,6.250000e-02,1.250000e+00,76,45,3.107120e-01,3.000222e-01,1.000281e-01,8.333615e-02,7.244060e-06,4.000000e-01,100,2,1,1,1,2,3,7.254939e-01,1,1,Right,Vertical,Right,Vertical,Neither,Right,None,Final training,C
5,1,3,0,5.000000e-02,5.625000e-02,1.125000e+00,76,55,3.187628e-01,3.000660e-01,9.997350e-02,8.331623e-02,7.546041e-06,4.000000e-01,100,2,1,1,1,2,3,4.754589e-01,1,1,Right,Vertical,Right,Vertical,Neither,Right,None,Final training,C
5,1,3,0,5.000000e-02,5.625000e-02,1.125000e+00,76,50,3.187378e-01,3.000443e-01,9.997501e-02,8.337569e-02,7.546041e-06,4.000000e-01,100,2,1,0,0,2,3,5.671295e-01,1,0,Right,Vertical,Left,Vertical,Neither,Left,None,Final training,C
5,1,3,0,5.000000e-02,5.625000e-02,1.125000e+00,76,35,3.188594e-01,3.000231e-01,9.999433e-02,8.338445e-02,7.546041e-06,4.000000e-01,100,2,1,1,1,2,3,6.671489e-01,0,0,Left,Vertical,Right,Vertical,Neither,Right,None,Final training,C
5,1,3,0,5.000000e-02,5.625000e-02,1.125000e+00,76,35,3.186955e-01,3.000117e-01,9.998406e-02,8.335486e-02,7.546041e-06,4.000000e-01,100,2,1,1,1,2,3,5.421302e-01,1,1,Right,Vertical,Right,Vertical,Neither,Right,None,Final training,C
5,1,3,0,5.000000e-02,5.625000e-02,1.125000e+00,76,50,3.187818e-01,3.000264e-01,9.999433e-02,8.335336e-02,7.546041e-06,4.000000e-01,100,2,1,0,0,2,3,6.088118e-01,1,0,Right,Vertical,Left,Vertical,Neither,Left,None,Final training,C
5,1,3,0,5.000000e-02,5.625000e-02,1.125000e+00,76,45,3.187704e-01,3.000255e-01,1.000133e-01,8.333675e-02,7.546041e-06,4.000000e-01,100,2,1,0,0,2,3,2.754168e-01,1,0,Right,Vertical,Left,Vertical,Neither,Left,None,Final training,C
5,1,3,0,5.000000e-02,5.625000e-02,1.125000e+00,76,45,3.107974e-01,3.000243e-01,1.000167e-01,8.331683e-02,7.244293e-06,4.000000e-01,100,2,1,1,1,2,3,5.004627e-01,0,0,Left,Vertical,Right,Vertical,Neither,Right,None,Final training,C
5,1,3,0,5.000000e-02,5.625000e-02,1.125000e+00,76,55,3.188280e-01,3.000261e-01,1.000112e-01,8.330868e-02,7.848023e-06,4.000000e-01,100,2,1,0,0,2,3,6.255946e-01,0,1,Left,Vertical,Left,Vertical,Neither,Left,None,Final training,C
5,1,3,0,5.000000e-02,5.625000e-02,1.125000e+00,76,55,3.186375e-01,3.000255e-01,1.000118e-01,8.334219e-02,7.848023e-06,4.000000e-01,100,2,1,1,1,2,3,1.092201e+00,1,1,Right,Vertical,Right,Vertical,Neither,Right,None,Final training,C
5,1,3,0,5.000000e-02,5.625000e-02,1.125000e+00,76,55,3.183363e-01,3.000101e-01,1.000272e-01,8.333887e-02,7.546041e-06,4.000000e-01,100,2,1,1,1,2,3,3.671273e-01,1,1,Right,Vertical,Right,Vertical,Neither,Right,None,Final training,C
5,1,3,0,5.000000e-02,5.625000e-02,1.125000e+00,76,55,3.105967e-01,3.000400e-01,9.999433e-02,8.335486e-02,7.546041e-06,4.000000e-01,100,2,1,0,0,2,3,3.671210e-01,0,1,Left,Vertical,Left,Vertical,Neither,Left,None,Final training,C
5,1,3,0,5.000000e-02,5.625000e-02,1.125000e+00,76,40,3.104881e-01,3.000240e-01,9.999614e-02,8.335607e-02,7.546041e-06,4.000000e-01,100,2,1,1,1,2,3,2.837610e-01,1,1,Right,Vertical,Right,Vertical,Neither,Right,None,Final training,C
5,1,3,0,5.000000e-02,5.625000e-02,1.125000e+00,76,55,3.106818e-01,3.000071e-01,1.000299e-01,8.333766e-02,7.546041e-06,4.000000e-01,100,2,1,1,1,2,3,2.171080e-01,0,0,Left,Vertical,Right,Vertical,Neither,Right,None,Final training,C
5,1,3,0,5.000000e-02,5.625000e-02,1.125000e+00,76,35,3.107718e-01,3.000159e-01,9.999765e-02,8.335275e-02,7.244293e-06,4.000000e-01,100,2,1,0,0,2,3,3.671351e-01,0,1,Left,Vertical,Left,Vertical,Neither,Left,None,Final training,C
5,1,3,0,5.000000e-02,5.625000e-02,1.125000e+00,76,50,3.187818e-01,3.000237e-01,9.999704e-02,8.335396e-02,7.546041e-06,4.000000e-01,100,2,1,1,1,2,3,2.671079e-01,1,1,Right,Vertical,Right,Vertical,Neither,Right,None,Final training,C
5,1,3,0,5.000000e-02,5.625000e-02,1.125000e+00,76,55,3.106399e-01,3.000645e-01,1.000281e-01,8.329087e-02,7.847790e-06,4.000000e-01,100,2,1,0,0,2,3,4.087872e-01,0,1,Left,Vertical,Left,Vertical,Neither,Left,None,Final training,C
5,1,3,0,5.000000e-02,5.625000e-02,1.125000e+00,76,45,3.105940e-01,3.000394e-01,1.000127e-01,8.332106e-02,7.847790e-06,4.000000e-01,100,2,1,0,0,2,3,4.671307e-01,1,0,Right,Vertical,Left,Vertical,Neither,Left,None,Final training,C
5,1,3,0,5.000000e-02,5.625000e-02,1.125000e+00,76,35,3.107371e-01,3.000276e-01,9.997652e-02,8.335185e-02,7.546274e-06,4.000000e-01,100,2,1,1,1,2,3,5.505061e-01,0,0,Left,Vertical,Right,Vertical,Neither,Right,None,Final training,C
5,1,3,0,5.000000e-02,5.625000e-02,1.125000e+00,76,45,3.187565e-01,3.000270e-01,1.000127e-01,8.331442e-02,7.848023e-06,4.000000e-01,100,2,1,1,1,2,3,2.504389e-01,0,0,Left,Vertical,Right,Vertical,Neither,Right,None,Final training,C
5,1,3,0,5.000000e-02,5.625000e-02,1.125000e+00,76,50,3.107881e-01,3.000237e-01,9.999463e-02,8.335456e-02,7.848023e-06,4.000000e-01,100,2,1,0,0,2,3,3.004514e-01,0,1,Left,Vertical,Left,Vertical,Neither,Left,None,Final training,C
5,1,4,1,5.000000e-02,1.000000e-01,2.000000e+00,76,35,3.161830e-01,2.666458e-01,1.333487e-01,8.306479e-02,7.546041e-06,4.000000e-01,134,2,1,0,0,2,3,1.217241e+00,0,1,Left,Vertical,Left,Vertical,Neither,Left,None,Staircase calibration,C
5,1,4,1,5.000000e-02,1.000000e-01,2.000000e+00,76,55,3.143619e-01,3.666926e-01,3.333929e-02,8.333887e-02,7.546041e-06,4.000000e-01,34,2,1,1,1,2,3,5.254491e-01,1,1,Right,Vertical,Right,Vertical,Neither,Right,None,Staircase calibration,C
5,1,4,1,5.000000e-02,1.000000e-01,2.000000e+00,76,50,3.184604e-01,2.666826e-01,1.333451e-01,8.333736e-02,7.546041e-06,4.000000e-01,134,2,1,1,1,2,3,4.754860e-01,1,1,Right,Vertical,Right,Vertical,Neither,Right,None,Staircase calibration,C
5,1,4,1,5.000000e-02,1.000000e-01,2.000000e+00,76,35,3.188558e-01,2.666902e-01,1.333647e-01,8.333706e-02,7.546041e-06,4.000000e-01,134,2,1,1,1,2,3,6.171575e-01,0,0,Left,Vertical,Right,Vertical,Neither,Right,None,Staircase calibration,C
5,1,4,1,5.000000e-02,1.000000e-01,2.000000e+00,76,55,3.187649e-01,3.916974e-01,8.338444e-03,8.340044e-02,7.546041e-06,4.000000e-01,8,2,1,1,1,2,3,4.587829e-01,1,1,Right,Vertical,Right,Vertical,Neither,Right,None,Staircase calibration,C
5,1,4,1,5.000000e-02,1.000000e-01,2.000000e+00,76,35,3.187601e-01,2.667143e-01,1.333243e-01,8.334581e-02,7.848023e-06,4.000000e-01,134,2,1,1,1,2,3,3.504420e-01,1,1,Right,Vertical,Right,Vertical,Neither,Right,None,Staircase calibration,C
5,1,4,1,5.000000e-02,1.000000e-01,2.000000e+00,76,50,3.188648e-01,2.667119e-01,1.333840e-01,8.331683e-02,7.847790e-06,4.000000e-01,134,2,1,0,0,2,3,3.004840e-01,0,1,Left,Vertical,Left,Vertical,Neither,Left,None,Staircase calibration,C
5,1,4,1,5.000000e-02,1.000000e-01,2.000000e+00,76,50,3.187260e-01,3.667506e-01,3.332178e-02,8.332136e-02,7.546274e-06,4.000000e-01,34,2,1,1,1,2,3,4.004744e-01,1,1,Right,Vertical,Right,Vertical,Neither,Right,None,Staircase calibration,C
5,1,4,1,5.000000e-02,1.000000e-01,2.000000e+00,76,40,3.106049e-01,3.666833e-01,3.337400e-02,8.331895e-02,7.546041e-06,4.000000e-01,34,2,1,1,1,2,3,3.837806e-01,1,1,Right,Vertical,Right,Vertical,Neither,Right,None,Staircase calibration,C
5,1,4,1,5.000000e-02,1.000000e-01,2.000000e+00,76,55,3.187924e-01,2.666781e-01,1.333550e-01,8.331502e-02,7.848023e-06,4.000000e-01,134,2,1,1,1,2,3,3.671677e-01,1,1,Right,Vertical,Right,Vertical,Neither,Right,None,Staircase calibration,C
5,1,4,1,5.000000e-02,1.000000e-01,2.000000e+00,76,55,3.175041e-01,2.666817e-01,1.333499e-01,8.335336e-02,7.546274e-06,4.000000e-01,134,2,1,1,1,2,3,3.587825e-01,1,1,Right,Vertical,Right,Vertical,Neither,Right,None,Staircase calibration,C
5,1,4,1,5.000000e-02,1.000000e-01,2.000000e+00,76,55,3.189427e-01,3.667032e-01,3.333054e-02,8.331623e-02,7.546041e-06,4.000000e-01,34,2,1,0,0,2,3,3.671222e-01,0,1,Left,Vertical,Left,Vertical,Neither,Left,None,Staircase calibration,C
5,1,4,1,5.000000e-02,1.000000e-01,2.000000e+00,76,55,3.106332e-01,3.667120e-01,3.333989e-02,8.333736e-02,7.546041e-06,4.000000e-01,34,2,1,1,1,2,3,3.504598e-01,1,1,Right,Vertical,Right,Vertical,Neither,Right,None,Staircase calibration,C
5,1,4,1,5.000000e-02,1.000000e-01,2.000000e+00,76,55,3.104051e-01,3.666990e-01,3.334593e-02,8.338837e-02,7.546274e-06,4.000000e-01,34,2,1,0,0,2,3,4.087733e-01,0,1,Left,Vertical,Left,Vertical,Neither,Left,None,Staircase calibration,C
5,1,4,1,5.000000e-02,1.000000e-01,2.000000e+00,76,50,3.189080e-01,3.917022e-01,8.321843e-03,8.335094e-02,7.546274e-06,4.000000e-01,8,2,1,1,1,2,3,2.504319e-01,1,1,Right,Vertical,Right,Vertical,Neither,Right,None,Staircase calibration,C
5,1,4,1,5.000000e-02,1.000000e-01,2.000000e+00,76,55,3.107543e-01,2.666868e-01,1.333493e-01,8.333645e-02,7.546041e-06,4.000000e-01,134,2,1,1,1,2,3,2.921374e-01,0,0,Left,Vertical,Right,Vertical,Neither,Right,None,Staircase calibration,C
5,1,4,1,5.000000e-02,1.000000e-01,2.000000e+00,76,55,3.188190e-01,2.667059e-01,1.333487e-01,8.337992e-02,7.546041e-06,4.000000e-01,134,2,1,0,0,2,3,4.254542e-01,0,1,Left,Vertical,Left,Vertical,Neither,Left,None,Staircase calibration,C
5,1,4,1,5.000000e-02,1.000000e-01,2.000000e+00,76,55,3.186315e-01,3.917050e-01,8.332408e-03,8.333826e-02,1.660152e-05,4.000000e-01,8,2,1,0,0,2,3,4.254125e-01,0,1,Left,Vertical,Left,Vertical,Neither,Left,None,Staircase calibration,C
5,1,4,1,5.000000e-02,1.000000e-01,2.000000e+00,76,40,3.187308e-01,3.917216e-01,8.314901e-03,8.333645e-02,7.546041e-06,4.000000e-01,8,2,1,0,0,2,3,3.504679e-01,0,1,Left,Vertical,Left,Vertical,Neither,Left,None,Staircase calibration,C
5,1,4,1,5.000000e-02,1.000000e-01,2.000000e+00,76,40,3.106740e-01,3.667126e-01,3.333688e-02,8.333706e-02,7.244060e-06,4.000000e-01,34,2,1,1,1,2,3,3.004581e-01,1,1,Right,Vertical,Right,Vertical,Neither,Right,None,Staircase calibration,C
5,1,4,1,5.000000e-02,1.000000e-01,2.000000e+00,76,45,3.106357e-01,2.666995e-01,1.333369e-01,8.334339e-02,7.546041e-06,4.000000e-01,134,2,1,1,1,2,3,3.337962e-01,1,1,Right,Vertical,Right,Vertical,Neither,Right,None,Staircase calibration,C
5,1,4,1,5.000000e-02,1.000000e-01,2.000000e+00,76,45,3.187350e-01,3.666969e-01,3.334110e-02,8.333555e-02,7.546041e-06,4.000000e-01,34,2,1,0,0,2,3,2.837586e-01,0,1,Left,Vertical,Left,Vertical,Neither,Left,None,Staircase calibration,C
5,1,4,1,5.000000e-02,1.000000e-01,2.000000e+00,76,45,3.106933e-01,2.667089e-01,1.333291e-01,8.333796e-02,7.546041e-06,4.000000e-01,134,2,1,0,0,2,3,3.254375e-01,0,1,Left,Vertical,Left,Vertical,Neither,Left,None,Staircase calibration,C
5,1,4,1,5.000000e-02,1.000000e-01,2.000000e+00,76,35,3.188673e-01,3.916908e-01,8.349915e-03,8.332377e-02,7.546041e-06,4.000000e-01,8,2,1,1,1,2,3,4.171299e-01,1,1,Right,Vertical,Right,Vertical,Neither,Right,None,Staircase calibration,C
5,1,4,1,5.000000e-02,1.000000e-01,2.000000e+00,76,40,3.105732e-01,3.916859e-01,8.345085e-03,8.332921e-02,7.546274e-06,4.000000e-01,8,2,1,0,0,2,3,3.921472e-01,0,1,Left,Vertical,Left,Vertical,Neither,Left,None,Staircase calibration,C
5,1,4,1,5.000000e-02,1.000000e-01,2.000000e+00,76,45,3.107096e-01,3.667035e-01,3.333838e-02,8.332015e-02,7.847790e-06,4.000000e-01,34,2,1,0,0,2,3,4.087730e-01,0,1,Left,Vertical,Left,Vertical,Neither,Left,None,Staircase calibration,C
5,1,4,1,5.000000e-02,1.000000e-01,2.000000e+00,76,55,3.186318e-01,2.666868e-01,1.333487e-01,8.333766e-02,7.546041e-06,4.000000e-01,134,2,1,1,1,2,3,2.420793e-01,1,1,Right,Vertical,Right,Vertical,Neither,Right,None,Staircase calibration,C
5,1,4,1,5.000000e-02,1.000000e-01,2.000000e+00,76,45,3.188763e-01,3.916636e-01,8.337841e-03,8.332649e-02,7.546041e-06,4.000000e-01,8,2,1,0,0,2,3,3.421428e-01,0,1,Left,Vertical,Left,Vertical,Neither,Left,None,Staircase calibration,C
5,1,4,1,5.000000e-02,1.000000e-01,2.000000e+00,76,50,3.106019e-01,2.667001e-01,1.333656e-01,8.332257e-02,7.546041e-06,4.000000e-01,134,2,1,1,1,2,3,2.504546e-01,1,1,Right,Vertical,Right,Vertical,Neither,Right,None,Staircase calibration,C
5,1,4,1,5.000000e-02,1.000000e-01,2.000000e+00,76,50,3.106351e-01,2.666826e-01,1.333427e-01,8.337569e-02,8.149771e-06,4.000000e-01,134,2,1,1,1,2,3,2.587179e-01,0,0,Left,Vertical,Right,Vertical,Neither,Right,None,Staircase calibration,C
5,1,4,1,5.000000e-02,1.000000e-01,2.000000e+00,76,40,3.106686e-01,2.667131e-01,1.333086e-01,8.335426e-02,7.546274e-06,4.000000e-01,134,2,1,0,0,2,3,3.087648e-01,0,1,Left,Vertical,Left,Vertical,Neither,Left,None,Staircase calibration,C
5,1,4,1,5.000000e-02,1.000000e-01,2.000000e+00,76,45,3.104618e-01,3.916995e-01,8.337841e-03,8.332257e-02,7.546274e-06,4.000000e-01,8,2,1,1,1,2,3,2.921145e-01,1,1,Right,Vertical,Right,Vertical,Neither,Right,None,Staircase calibration,C
5,1,4,1,5.000000e-02,1.000000e-01,2.000000e+00,76,45,3.189424e-01,3.917062e-01,8.335124e-03,8.335819e-02,7.546041e-06,4.000000e-01,8,2,1,0,0,2,3,2.754126e-01,0,1,Left,Vertical,Left,Vertical,Neither,Left,None,Staircase calibration,C
5,1,4,1,5.000000e-02,1.000000e-01,2.000000e+00,76,55,3.105738e-01,3.917179e-01,8.335728e-03,8.332891e-02,7.244060e-06,4.000000e-01,8,2,1,1,1,2,3,3.837867e-01,1,1,Right,Vertical,Right,Vertical,Neither,Right,None,Staircase calibration,C
5,1,4,1,5.000000e-02,1.000000e-01,2.000000e+00,76,40,3.188651e-01,2.666899e-01,1.333472e-01,8.332136e-02,7.847790e-06,4.000000e-01,134,2,1,0,0,2,3,2.422025e-01,0,1,Left,Vertical,Left,Vertical,Neither,Left,None,Staircase calibration,C
5,1,4,1,5.000000e-02,1.000000e-01,2.000000e+00,76,45,3.106254e-01,3.667108e-01,3.331122e-02,8.335275e-02,7.244293e-06,4.000000e-01,34,2,1,1,1,2,3,3.587511e-01,1,1,Right,Vertical,Right,Vertical,Neither,Right,None,Staircase calibration,C
5,1,4,1,5.000000e-02,1.000000e-01,2.000000e+00,76,45,3.106764e-01,2.666944e-01,1.333430e-01,8.333796e-02,7.546041e-06,4.000000e-01,134,2,1,0,0,2,3,2.588235e-01,0,1,Left,Vertical,Left,Vertical,Neither,Left,None,Staircase calibration,C
5,1,4,1,5.000000e-02,1.000000e-01,2.000000e+00,76,45,3.105871e-01,3.916947e-01,8.382212e-03,8.329359e-02,7.847790e-06,4.000000e-01,8,2,1,0,0,2,3,2.837794e-01,1,0,Right,Vertical,Left,Vertical,Neither,Left,None,Staircase calibration,C
5,1,4,1,5.000000e-02,1.000000e-01,2.000000e+00,76,35,3.188814e-01,2.667035e-01,1.333493e-01,8.332166e-02,7.546041e-06,4.000000e-01,134,2,1,1,1,2,3,4.254828e-01,1,1,Right,Vertical,Right,Vertical,Neither,Right,None,Staircase calibration,C
5,1,4,1,5.000000e-02,1.000000e-01,2.000000e+00,76,55,3.104051e-01,3.916823e-01,8.338445e-03,8.338082e-02,7.546041e-06,4.000000e-01,8,2,1,0,0,2,3,4.088014e-01,0,1,Left,Vertical,Left,Vertical,Neither,Left,None,Staircase calibration,C
5,1,4,1,5.000000e-02,1.000000e-01,2.000000e+00,76,40,3.186997e-01,3.917004e-01,8.336332e-03,8.332136e-02,7.848023e-06,4.000000e-01,8,2,1,0,0,2,3,3.421337e-01,0,1,Left,Vertical,Left,Vertical,Neither,Left,None,Staircase calibration,C
5,1,4,1,5.000000e-02,1.000000e-01,2.000000e+00,76,45,3.188857e-01,3.917025e-01,8.348104e-03,8.336603e-02,7.244293e-06,4.000000e-01,8,2,1,0,0,2,3,3.504640e-01,0,1,Left,Vertical,Left,Vertical,Neither,Left,None,Staircase calibration,C
5,1,4,1,5.000000e-02,1.000000e-01,2.000000e+00,76,40,3.188174e-01,3.917010e-01,8.350820e-03,8.330416e-02,8.149771e-06,4.000000e-01,8,2,1,0,0,2,3,2.754657e-01,0,1,Left,Vertical,Left,Vertical,Neither,Left,None,Staircase calibration,C
5,1,4,1,5.000000e-02,1.000000e-01,2.000000e+00,76,55,3.106022e-01,3.667231e-01,3.334231e-02,8.333464e-02,7.546041e-06,4.000000e-01,34,2,1,1,1,2,3,3.505075e-01,1,1,Right,Vertical,Right,Vertical,Neither,Right,None,Staircase calibration,C
5,1,4,1,5.000000e-02,1.000000e-01,2.000000e+00,76,45,3.104669e-01,3.667497e-01,3.330820e-02,8.335456e-02,7.546041e-06,4.000000e-01,34,2,1,1,1,2,3,3.670850e-01,1,1,Right,Vertical,Right,Vertical,Neither,Right,None,Staircase calibration,C
5,1,4,1,5.000000e-02,1.000000e-01,2.000000e+00,76,50,3.107172e-01,2.666600e-01,1.333783e-01,8.335547e-02,7.546041e-06,4.000000e-01,134,2,1,1,1,2,3,3.087558e-01,1,1,Right,Vertical,Right,Vertical,Neither,Right,None,Staircase calibration,C
5,1,4,1,5.000000e-02,1.000000e-01,2.000000e+00,76,35,3.104684e-01,2.667086e-01,1.333288e-01,8.330174e-02,7.546041e-06,4.000000e-01,134,2,1,0,0,2,3,2.921882e-01,0,1,Left,Vertical,Left,Vertical,Neither,Left,None,Staircase calibration,C
5,1,4,1,5.000000e-02,1.000000e-01,2.000000e+00,76,35,3.188808e-01,3.917182e-01,8.323956e-03,8.334822e-02,7.546041e-06,4.000000e-01,8,2,1,1,1,2,3,4.421166e-01,1,1,Right,Vertical,Right,Vertical,Neither,Right,None,Staircase calibration,C
5,1,4,1,5.000000e-02,1.000000e-01,2.000000e+00,76,50,3.105258e-01,3.917080e-01,8.347198e-03,8.332679e-02,7.546041e-06,4.000000e-01,8,2,1,1,1,2,3,3.921417e-01,1,1,Right,Vertical,Right,Vertical,Neither,Right,None,Staircase calibration,C
5,1,4,1,5.000000e-02,1.000000e-01,2.000000e+00,76,50,3.187483e-01,3.916844e-01,8.353235e-03,8.333736e-02,7.546041e-06,4.000000e-01,8,2,1,1,1,2,3,3.754283e-01,1,1,Right,Vertical,Right,Vertical,Neither,Right,None,Staircase calibration,C
5,1,4,1,5.000000e-02,9.048374e-02,1.809675e+00,76,50,3.187435e-01,3.917385e-01,8.282000e-03,8.333706e-02,7.546041e-06,4.000000e-01,8,2,1,0,0,2,3,3.338828e-01,0,1,Left,Vertical,Left,Vertical,Neither,Left,None,Staircase calibration,C
5,1,4,1,5.000000e-02,9.048374e-02,1.809675e+00,76,40,3.106179e-01,3.666969e-01,3.333265e-02,8.333343e-02,7.546274e-06,4.000000e-01,34,2,1,0,0,2,3,3.504740e-01,0,1,Left,Vertical,Left,Vertical,Neither,Left,None,Staircase calibration,C
5,1,4,1,5.000000e-02,9.048374e-02,1.809675e+00,76,55,3.187040e-01,3.667002e-01,3.337249e-02,8.330083e-02,7.546274e-06,4.000000e-01,34,2,1,0,0,2,3,3.171274e-01,0,1,Left,Vertical,Left,Vertical,Neither,Left,None,Staircase calibration,C
5,1,4,1,5.000000e-02,9.048374e-02,1.809675e+00,76,45,3.106124e-01,3.917053e-01,8.320636e-03,8.333706e-02,7.848023e-06,4.000000e-01,8,2,1,1,1,2,3,3.837900e-01,1,1,Right,Vertical,Right,Vertical,Neither,Right,None,Staircase calibration,C
5,1,4,1,5.000000e-02,9.048374e-02,1.809675e+00,76,55,3.106097e-01,3.917098e-01,8.333917e-03,8.334189e-02,7.848023e-06,4.000000e-01,8,2,1,0,0,2,3,3.504468e-01,0,1,Left,Vertical,Left,Vertical,Neither,Left,None,Staircase calibration,C
5,1,4,1,5.000000e-02,9.048374e-02,1.809675e+00,76,40,3.106402e-01,2.667022e-01,1.333276e-01,8.333706e-02,7.244293e-06,4.000000e-01,134,2,1,1,1,2,3,2.754669e-01,1,1,Right,Vertical,Right,Vertical,Neither,Right,None,Staircase calibration,C
5,1,4,1,5.000000e-02,9.048374e-02,1.809675e+00,76,40,3.106559e-01,3.916856e-01,8.352631e-03,8.333736e-02,7.546041e-06,4.000000e-01,8,2,1,1,1,2,3,3.588006e-01,1,1,Right,Vertical,Right,Vertical,Neither,Right,None,Staircase calibration,C
5,1,4,1,5.000000e-02,9.048374e-02,1.809675e+00,76,45,3.106483e-01,2.666893e-01,1.333336e-01,8.338173e-02,7.546274e-06,4.000000e-01,134,2,1,0,0,2,3,3.921103e-01,0,1,Left,Vertical,Left,Vertical,Neither,Left,None,Staircase calibration,C
5,1,4,1,5.000000e-02,9.048374e-02,1.809675e+00,76,55,3.187565e-01,3.667144e-01,3.332239e-02,8.334219e-02,8.149771e-06,4.000000e-01,34,2,1,1,1,2,3,2.920934e-01,1,1,Right,Vertical,Right,Vertical,Neither,Right,None,Staircase calibration,C
5,1,4,1,5.000000e-02,9.048374e-02,1.809675e+00,76,35,3.107401e-01,3.917315e-01,8.300412e-03,8.335336e-02,7.546274e-06,4.000000e-01,8,2,1,0,0,2,3,3.921254e-01,0,1,Left,Vertical,Left,Vertical,Neither,Left,None,Staircase calibration,C
5,1,4,1,5.000000e-02,8.187308e-02,1.637462e+00,76,55,3.189183e-01,3.917031e-01,8.335728e-03,8.334702e-02,7.546274e-06,4.000000e-01,8,2,1,0,0,2,3,3.337787e-01,0,1,Left,Vertical,Left,Vertical,Neither,Left,None,Staircase calibration,C
5,1,4,1,5.000000e-02,8.187308e-02,1.637462e+00,76,45,3.106317e-01,3.917128e-01,8.319127e-03,8.334219e-02,8.451520e-06,4.000000e-01,8,2,1,0,0,2,3,3.337611e-01,0,1,Left,Vertical,Left,Vertical,Neither,Left,None,Staircase calibration,C
5,1,4,1,5.000000e-02,8.187308e-02,1.637462e+00,76,45,3.106429e-01,3.667186e-01,3.331967e-02,8.333645e-02,7.244293e-06,4.000000e-01,34,2,1,1,1,2,3,3.421581e-01,1,1,Right,Vertical,Right,Vertical,Neither,Right,None,Staircase calibration,C
5,1,4,1,5.000000e-02,8.187308e-02,1.637462e+00,76,50,3.188567e-01,3.667192e-01,3.334080e-02,8.336332e-02,7.546041e-06,4.000000e-01,34,2,1,1,1,2,3,3.087476e-01,1,1,Right,Vertical,Right,Vertical,Neither,Right,None,Staircase calibration,C
5,1,4,1,5.000000e-02,8.187308e-02,1.637462e+00,76,55,3.107051e-01,3.666987e-01,3.332239e-02,8.335396e-02,7.546041e-06,4.000000e-01,34,2,1,0,0,2,3,3.004671e-01,0,1,Left,Vertical,Left,Vertical,Neither,Left,None,Staircase calibration,C
5,1,4,1,5.000000e-02,8.187308e-02,1.637462e+00,76,55,3.186807e-01,3.917001e-01,8.336634e-03,8.333585e-02,7.546274e-06,4.000000e-01,8,2,1,0,0,2,3,4.087468e-01,0,1,Left,Vertical,Left,Vertical,Neither,Left,None,Staircase calibration,C
5,1,4,1,5.000000e-02,8.187308e-02,1.637462e+00,76,45,3.106677e-01,3.917128e-01,8.313995e-03,8.333857e-02,7.546041e-06,4.000000e-01,8,2,1,0,0,2,3,4.088087e-01,0,1,Left,Vertical,Left,Vertical,Neither,Left,None,Staircase calibration,C
5,1,4,1,5.000000e-02,8.187308e-02,1.637462e+00,76,45,3.105877e-01,2.666832e-01,1.333584e-01,8.332498e-02,7.848023e-06,4.000000e-01,134,2,1,0,0,2,3,3.337992e-01,0,1,Left,Vertical,Left,Vertical,Neither,Left,None,Staircase calibration,C
5,1,4,1,5.000000e-02,8.187308e-02,1.637462e+00,76,40,3.188579e-01,3.667258e-01,3.332118e-02,8.332649e-02,7.848023e-06,4.000000e-01,34,2,1,0,0,2,3,3.171066e-01,0,1,Left,Vertical,Left,Vertical,Neither,Left,None,Staircase calibration,C
5,1,4,1,5.000000e-02,8.187308e-02,1.637462e+00,76,40,3.106154e-01,3.667198e-01,3.331061e-02,8.333494e-02,7.546041e-06,4.000000e-01,34,2,1,1,1,2,3,4.254862e-01,1,1,Right,Vertical,Right,Vertical,Neither,Right,None,Staircase calibration,C
5,1,4,1,5.000000e-02,7.408182e-02,1.481636e+00,76,55,3.186741e-01,3.667005e-01,3.332118e-02,8.335336e-02,7.546041e-06,4.000000e-01,34,2,1,0,0,2,3,3.421093e-01,0,1,Left,Vertical,Left,Vertical,Neither,Left,None,Staircase calibration,C
5,1,4,1,5.000000e-02,7.408182e-02,1.481636e+00,76,45,3.186792e-01,3.917047e-01,8.337539e-03,8.335668e-02,7.847790e-06,4.000000e-01,8,2,1,1,1,2,3,4.171133e-01,1,1,Right,Vertical,Right,Vertical,Neither,Right,None,Staircase calibration,C
5,1,4,1,5.000000e-02,7.408182e-02,1.481636e+00,76,45,3.106043e-01,3.666914e-01,3.335438e-02,8.333675e-02,7.546041e-06,4.000000e-01,34,2,1,1,1,2,3,3.838021e-01,1,1,Right,Vertical,Right,Vertical,Neither,Right,None,Staircase calibration,C
5,1,4,1,5.000000e-02,7.408182e-02,1.481636e+00,76,50,3.187239e-01,2.666709e-01,1.333816e-01,8.328816e-02,7.546041e-06,4.000000e-01,134,2,1,0,0,2,3,3.254432e-01,0,1,Left,Vertical,Left,Vertical,Neither,Left,None,Staircase calibration,C
5,1,4,1,5.000000e-02,7.408182e-02,1.481636e+00,76,40,3.188063e-01,3.666990e-01,3.334020e-02,8.333283e-02,7.546041e-06,4.000000e-01,34,2,1,0,0,2,3,4.421329e-01,0,1,Left,Vertical,Left,Vertical,Neither,Left,None,Staircase calibration,C
5,1,4,1,5.000000e-02,7.408182e-02,1.481636e+00,76,35,3.187350e-01,2.667059e-01,1.333469e-01,8.332196e-02,7.847790e-06,4.000000e-01,134,2,1,0,0,2,3,4.504749e-01,0,1,Left,Vertical,Left,Vertical,Neither,Left,None,Staircase calibration,C
5,1,4,1,5.000000e-02,7.408182e-02,1.481636e+00,76,35,3.104947e-01,3.917050e-01,8.334219e-03,8.332619e-02,7.848023e-06,4.000000e-01,8,2,1,0,0,2,3,3.504549e-01,0,1,Left,Vertical,Left,Vertical,Neither,Left,None,Staircase calibration,C
5,1,4,1,5.000000e-02,7.408182e-02,1.481636e+00,76,40,3.186922e-01,2.667013e-01,1.333107e-01,8.341222e-02,7.546041e-06,4.000000e-01,134,2,1,1,1,2,3,4.337555e-01,1,1,Right,Vertical,Right,Vertical,Neither,Right,None,Staircase calibration,C
5,1,4,1,5.000000e-02,7.408182e-02,1.481636e+00,76,55,3.186774e-01,2.666856e-01,1.333487e-01,8.335909e-02,7.848023e-06,4.000000e-01,134,2,1,1,1,2,3,3.171048e-01,1,1,Right,Vertical,Right,Vertical,Neither,Right,None,Staircase calibration,C
5,1,4,1,5.000000e-02,7.408182e-02,1.481636e+00,76,55,3.106260e-01,3.666818e-01,3.335559e-02,8.331955e-02,7.546041e-06,4.000000e-01,34,2,1,0,0,2,3,3.671527e-01,0,1,Left,Vertical,Left,Vertical,Neither,Left,None,Staircase calibration,C
5,1,5,2,5.000000e-02,6.703200e-02,1.340640e+00,76,50,3.128274e-01,3.663787e-01,3.335046e-02,8.333947e-02,7.848023e-06,4.000000e-01,34,1,3,1,1,2,3,6.338256e-01,1,1,Right,Right,Right,Vertical,Target primed,Right,None,Main study,C
5,1,5,2,5.000000e-02,6.703200e-02,1.340640e+00,76,45,3.185899e-01,3.667361e-01,3.330126e-02,8.335275e-02,7.244293e-06,4.000000e-01,34,1,3,1,1,2,3,6.754617e-01,0,0,Left,Right,Right,Vertical,Target primed,Right,None,Main study,C
5,1,5,2,5.000000e-02,6.703200e-02,1.340640e+00,76,50,3.186291e-01,3.666848e-01,3.335257e-02,8.332015e-02,7.848023e-06,4.000000e-01,34,0,2,1,1,2,3,4.504631e-01,1,1,Right,Left,Right,Vertical,Foil primed,Right,None,Main study,C
5,1,5,2,5.000000e-02,6.703200e-02,1.340640e+00,76,35,3.189352e-01,3.666655e-01,3.334653e-02,8.334551e-02,7.546274e-06,4.000000e-01,34,0,2,1,1,2,3,5.421269e-01,1,1,Right,Left,Right,Vertical,Foil primed,Right,None,Main study,C
5,1,5,2,5.000000e-02,6.703200e-02,1.340640e+00,76,50,3.188259e-01,2.667053e-01,1.333487e-01,8.339380e-02,7.546041e-06,4.000000e-01,134,0,2,1,1,2,3,7.670955e-01,1,1,Right,Left,Right,Vertical,Foil primed,Right,None,Main study,C
5,1,5,2,5.000000e-02,6.703200e-02,1.340640e+00,76,45,3.185005e-01,3.916899e-01,8.319428e-03,8.335336e-02,7.546041e-06,4.000000e-01,8,0,2,1,1,2,3,7.088119e-01,1,1,Right,Left,Right,Vertical,Foil primed,Right,None,Main study,C
5,1,5,2,5.000000e-02,6.703200e-02,1.340640e+00,76,50,3.188371e-01,2.667170e-01,1.333146e-01,8.334219e-02,7.244293e-06,4.000000e-01,134,0,2,1,1,2,3,6.504901e-01,1,1,Right,Left,Right,Vertical,Foil primed,Right,None,Main study,C
5,1,5,2,5.000000e-02,6.703200e-02,1.340640e+00,76,35,3.188944e-01,2.666648e-01,1.333442e-01,8.334430e-02,7.546041e-06,4.000000e-01,134,0,3,0,0,2,3,7.921667e-01,1,0,Right,Left,Left,Vertical,Target primed,Left,None,Main study,C
5,1,5,2,5.000000e-02,6.703200e-02,1.340640e+00,76,55,3.187480e-01,3.666854e-01,3.335740e-02,8.339018e-02,7.546041e-06,4.000000e-01,34,1,2,0,0,2,3,4.254074e-01,0,1,Left,Right,Left,Vertical,Foil primed,Left,None,Main study,C
5,1,5,2,5.000000e-02,6.703200e-02,1.340640e+00,76,45,3.108313e-01,3.666815e-01,3.334804e-02,8.333615e-02,7.546041e-06,4.000000e-01,34,1,2,0,0,2,3,3.754833e-01,1,0,Right,Right,Left,Vertical,Foil primed,Left,None,Main study,C
5,1,5,2,5.000000e-02,6.703200e-02,1.340640e+00,76,55,3.106779e-01,3.917137e-01,8.336935e-03,8.334068e-02,7.546041e-06,4.000000e-01,8,1,2,0,0,2,3,3.671155e-01,0,1,Left,Right,Left,Vertical,Foil primed,Left,None,Main study,C
5,1,5,2,5.000000e-02,6.703200e-02,1.340640e+00,76,50,3.105463e-01,2.666769e-01,1.333472e-01,8.333706e-02,7.546041e-06,4.000000e-01,134,0,2,1,1,2,3,3.754751e-01,1,1,Right,Left,Right,Vertical,Foil primed,Right,None,Main study,C
5,1,5,2,5.000000e-02,6.703200e-02,1.340640e+00,76,55,3.188639e-01,3.916872e-01,8.336030e-03,8.334702e-02,1.660129e-05,4.000000e-01,8,1,2,0,0,2,3,2.503713e-01,0,1,Left,Right,Left,Vertical,Foil primed,Left,None,Main study,C
5,1,5,2,5.000000e-02,6.703200e-02,1.340640e+00,76,45,3.108623e-01,3.916696e-01,8.375873e-03,8.329751e-02,7.244293e-06,4.000000e-01,8,1,2,0,0,2,3,2.504742e-01,1,0,Right,Right,Left,Vertical,Foil primed,Left,None,Main study,C
5,1,5,2,5.000000e-02,6.703200e-02,1.340640e+00,76,50,3.107256e-01,2.666908e-01,1.333478e-01,8.335336e-02,7.546041e-06,4.000000e-01,134,1,3,1,1,2,3,3.170987e-01,0,0,Left,Right,Right,Vertical,Target primed,Right,None,Main study,C
5,1,5,2,5.000000e-02,6.703200e-02,1.340640e+00,76,50,3.188310e-01,2.666606e-01,1.333502e-01,8.333736e-02,7.546274e-06,4.000000e-01,134,1,2,0,0,2,3,1.100602e+00,0,1,Left,Right,Left,Vertical,Foil primed,Left,None,Main study,C
5,1,5,2,5.000000e-02,6.703200e-02,1.340640e+00,76,50,3.185319e-01,3.667008e-01,3.333869e-02,8.332227e-02,7.546274e-06,4.000000e-01,34,0,3,0,0,2,3,4.338053e-01,0,1,Left,Left,Left,Vertical,Target primed,Left,None,Main study,C
5,1,5,2,5.000000e-02,6.703200e-02,1.340640e+00,76,55,3.190091e-01,3.666640e-01,3.336495e-02,8.329299e-02,7.546041e-06,4.000000e-01,34,0,3,0,0,2,3,7.005268e-01,1,0,Right,Left,Left,Vertical,Target primed,Left,None,Main study,C
5,1,5,2,5.000000e-02,6.703200e-02,1.340640e+00,76,55,3.186810e-01,3.666957e-01,3.333627e-02,8.334098e-02,7.546041e-06,4.000000e-01,34,0,2,1,1,2,3,9.255115e-01,0,0,Left,Left,Right,Vertical,Foil primed,Right,None,Main study,C
5,1,5,2,5.000000e-02,6.703200e-02,1.340640e+00,76,40,3.186439e-01,3.917025e-01,8.337237e-03,8.330597e-02,7.848023e-06,4.000000e-01,8,1,2,0,0,2,3,1.092224e+00,0,1,Left,Right,Left,Vertical,Foil primed,Left,None,Main study,C
5,1,5,2,5.000000e-02,6.703200e-02,1.340640e+00,76,55,3.185932e-01,2.667071e-01,1.333360e-01,8.331713e-02,7.546041e-06,4.000000e-01,134,0,2,1,1,2,3,5.088513e-01,1,1,Right,Left,Right,Vertical,Foil primed,Right,None,Main study,C
5,1,5,2,5.000000e-02,6.703200e-02,1.340640e+00,76,45,3.187827e-01,2.667194e-01,1.333556e-01,8.333615e-02,7.546041e-06,4.000000e-01,134,1,3,1,1,2,3,6.004392e-01,0,0,Left,Right,Right,Vertical,Target primed,Right,None,Main study,C
5,1,5,2,5.000000e-02,6.703200e-02,1.340640e+00,76,50,3.188832e-01,2.666826e-01,1.333587e-01,8.332196e-02,7.848023e-06,4.000000e-01,134,0,2,1,1,2,3,3.754962e-01,1,1,Right,Left,Right,Vertical,Foil primed,Right,None,Main study,C
5,1,5,2,5.000000e-02,6.703200e-02,1.340640e+00,76,45,3.189355e-01,2.666699e-01,1.333363e-01,8.334762e-02,7.546041e-06,4.000000e-01,134,0,3,0,0,2,3,1.150527e+00,0,1,Left,Left,Left,Vertical,Target primed,Left,None,Main study,C
5,1,5,2,5.000000e-02,6.703200e-02,1.340640e+00,76,45,3.185419e-01,2.666799e-01,1.333602e-01,8.332287e-02,7.546041e-06,4.000000e-01,134,0,2,1,1,2,3,2.837649e-01,1,1,Right,Left,Right,Vertical,Foil primed,Right,None,Main study,C
5,1,5,2,5.000000e-02,6.703200e-02,1.340640e+00,76,35,3.107087e-01,3.666990e-01,3.335408e-02,8.331864e-02,7.847790e-06,4.000000e-01,34,1,3,1,1,2,3,4.004687e-01,1,1,Right,Right,Right,Vertical,Target primed,Right,None,Main study,C
5,1,5,2,5.000000e-02,6.703200e-02,1.340640e+00,76,40,3.106821e-01,3.917158e-01,8.313090e-03,8.333796e-02,7.244293e-06,4.000000e-01,8,0,2,1,1,2,3,7.088656e-01,1,1,Right,Left,Right,Vertical,Foil primed,Right,None,Main study,C
5,1,5,2,5.000000e-02,6.703200e-02,1.340640e+00,76,45,3.105973e-01,3.916844e-01,8.336633e-03,8.336362e-02,7.546041e-06,4.000000e-01,8,1,3,1,1,2,3,6.337891e-01,1,1,Right,Right,Right,Vertical,Target primed,Right,None,Main study,C
5,1,5,2,5.000000e-02,6.703200e-02,1.340640e+00,76,45,3.186363e-01,3.667204e-01,3.338426e-02,8.327216e-02,7.546041e-06,4.000000e-01,34,0,2,1,1,2,3,7.088179e-01,1,1,Right,Left,Right,Vertical,Foil primed,Right,None,Main study,C
5,1,5,2,5.000000e-02,6.703200e-02,1.340640e+00,76,45,3.185823e-01,3.916971e-01,8.324560e-03,8.332830e-02,7.848023e-06,4.000000e-01,8,0,3,0,0,2,3,6.088541e-01,1,0,Right,Left,Left,Vertical,Target primed,Left,None,Main study,C
5,1,5,2,5.000000e-02,6.703200e-02,1.340640e+00,76,50,3.187643e-01,3.916977e-01,8.336633e-03,8.335456e-02,7.546041e-06,4.000000e-01,8,1,3,1,1,2,3,6.337948e-01,1,1,Right,Right,Right,Vertical,Target primed,Right,None,Main study,C
5,1,5,2,5.000000e-02,6.703200e-02,1.340640e+00,76,40,3.188377e-01,2.666835e-01,1.333626e-01,8.334038e-02,7.546041e-06,4.000000e-01,134,1,3,1,1,2,3,4.337854e-01,0,0,Left,Right,Right,Vertical,Target primed,Right,None,Main study,C
5,1,5,2,5.000000e-02,6.703200e-02,1.340640e+00,76,50,3.187770e-01,3.917188e-01,8.355952e-03,8.330174e-02,7.546274e-06,4.000000e-01,8,0,3,0,0,2,3,3.671886e-01,1,0,Right,Left,Left,Vertical,Target primed,Left,None,Main study,C
5,1,5,2,5.000000e-02,6.703200e-02,1.340640e+00,76,35,3.107078e-01,3.916983e-01,8.333917e-03,8.332891e-02,7.847790e-06,4.000000e-01,8,0,3,0,0,2,3,7.088161e-01,1,0,Right,Left,Left,Vertical,Target primed,Left,None,Main study,C
5,1,5,2,5.000000e-02,6.703200e-02,1.340640e+00,76,35,3.187097e-01,2.666917e-01,1.333623e-01,8.332287e-02,7.848023e-06,4.000000e-01,134,0,2,1,1,2,3,1.025512e+00,0,0,Left,Left,Right,Vertical,Foil primed,Right,None,Main study,C
5,1,5,2,5.000000e-02,6.703200e-02,1.340640e+00,76,40,3.186188e-01,2.666899e-01,1.333390e-01,8.333615e-02,7.546041e-06,4.000000e-01,134,0,3,0,0,2,3,4.838728e-01,1,0,Right,Left,Left,Vertical,Target primed,Left,None,Main study,C
5,1,5,2,5.000000e-02,6.703200e-02,1.340640e+00,76,50,3.187284e-01,3.666851e-01,3.335317e-02,8.335909e-02,7.546041e-06,4.000000e-01,34,0,3,0,0,2,3,1.592206e+00,0,1,Left,Left,Left,Vertical,Target primed,Left,None,Main study,C
5,1,5,2,5.000000e-02,6.703200e-02,1.340640e+00,76,45,3.181963e-01,3.666815e-01,3.335680e-02,8.333675e-02,7.848023e-06,4.000000e-01,34,1,2,0,0,2,3,5.921403e-01,0,1,Left,Right,Left,Vertical,Foil primed,Left,None,Main study,C
5,1,5,2,5.000000e-02,6.703200e-02,1.340640e+00,76,35,3.105798e-01,2.667041e-01,1.333683e-01,8.333645e-02,7.546041e-06,4.000000e-01,134,1,3,1,1,2,3,7.671466e-01,0,0,Left,Right,Right,Vertical,Target primed,Right,None,Main study,C
5,1,5,2,5.000000e-02,6.703200e-02,1.340640e+00,76,40,3.188932e-01,3.667014e-01,3.335831e-02,8.329963e-02,7.848023e-06,4.000000e-01,34,1,3,1,1,2,3,3.337965e-01,1,1,Right,Right,Right,Vertical,Target primed,Right,None,Main study,C
5,1,5,2,5.000000e-02,6.703200e-02,1.340640e+00,76,50,3.107156e-01,2.667071e-01,1.333309e-01,8.335154e-02,7.847790e-06,4.000000e-01,134,1,3,1,1,2,3,9.755132e-01,0,0,Left,Right,Right,Vertical,Target primed,Right,None,Main study,C
5,1,5,2,5.000000e-02,6.703200e-02,1.340640e+00,76,55,3.187356e-01,3.666975e-01,3.332299e-02,8.337479e-02,7.546274e-06,4.000000e-01,34,0,3,0,0,2,3,4.837789e-01,0,1,Left,Left,Left,Vertical,Target primed,Left,None,Main study,C
5,1,5,2,5.000000e-02,6.703200e-02,1.340640e+00,76,35,3.106731e-01,3.917062e-01,8.340256e-03,8.331291e-02,8.451520e-06,4.000000e-01,8,1,2,0,0,2,3,3.254616e-01,1,0,Right,Right,Left,Vertical,Foil primed,Left,None,Main study,C
5,1,5,2,5.000000e-02,6.703200e-02,1.340640e+00,76,35,3.107712e-01,3.916853e-01,8.370440e-03,8.332106e-02,7.546274e-06,4.000000e-01,8,1,2,0,0,2,3,7.172119e-01,1,0,Right,Right,Left,Vertical,Foil primed,Left,None,Main study,C
5,1,5,2,5.000000e-02,6.703200e-02,1.340640e+00,76,45,3.186602e-01,2.666872e-01,1.333357e-01,8.333947e-02,7.546041e-06,4.000000e-01,134,1,3,1,1,2,3,9.171383e-01,0,0,Left,Right,Right,Vertical,Target primed,Right,None,Main study,C
5,1,5,2,5.000000e-02,6.703200e-02,1.340640e+00,76,40,3.184272e-01,3.667077e-01,3.335921e-02,8.331713e-02,7.546274e-06,4.000000e-01,34,0,3,0,0,2,3,1.400559e+00,0,1,Left,Left,Left,Vertical,Target primed,Left,None,Main study,C
5,1,5,2,5.000000e-02,6.703200e-02,1.340640e+00,76,35,3.183378e-01,3.917255e-01,8.336030e-03,8.333826e-02,7.546274e-06,4.000000e-01,8,0,2,1,1,2,3,1.183869e+00,1,1,Right,Left,Right,Vertical,Foil primed,Right,None,Main study,C
5,1,5,2,5.000000e-02,6.703200e-02,1.340640e+00,76,40,3.185548e-01,2.666887e-01,1.333599e-01,8.332710e-02,7.546041e-06,4.000000e-01,134,0,2,1,1,2,3,7.421572e-01,0,0,Left,Left,Right,Vertical,Foil primed,Right,None,Main study,C
5,1,5,2,5.000000e-02,6.703200e-02,1.340640e+00,76,40,3.188854e-01,3.916787e-01,8.334521e-03,8.335728e-02,7.546041e-06,4.000000e-01,8,1,3,1,1,2,3,1.225507e+00,0,0,Left,Right,Right,Vertical,Target primed,Right,None,Main study,C
5,1,5,2,5.000000e-02,6.703200e-02,1.340640e+00,76,45,3.186505e-01,3.917231e-01,8.335124e-03,8.334762e-02,7.546041e-06,4.000000e-01,8,0,3,0,0,2,3,7.754089e-01,0,1,Left,Left,Left,Vertical,Target primed,Left,None,Main study,C
5,1,5,2,5.000000e-02,6.703200e-02,1.340640e+00,76,50,3.184534e-01,3.667183e-01,3.332873e-02,8.332257e-02,7.546041e-06,4.000000e-01,34,1,2,0,0,2,3,8.838461e-01,1,0,Right,Right,Left,Vertical,Foil primed,Left,None,Main study,C
5,1,5,2,5.000000e-02,6.703200e-02,1.340640e+00,76,55,3.186261e-01,2.666908e-01,1.333324e-01,8.333555e-02,7.546041e-06,4.000000e-01,134,0,2,1,1,2,3,7.255023e-01,1,1,Right,Left,Right,Vertical,Foil primed,Right,None,Main study,C
5,1,5,2,5.000000e-02,6.703200e-02,1.340640e+00,76,40,3.186852e-01,3.917101e-01,8.310373e-03,8.335698e-02,7.244293e-06,4.000000e-01,8,0,3,0,0,2,3,6.254682e-01,0,1,Left,Left,Left,Vertical,Target primed,Left,None,Main study,C
5,1,5,2,5.000000e-02,6.703200e-02,1.340640e+00,76,35,3.186167e-01,3.917128e-01,8.324258e-03,8.333555e-02,7.546274e-06,4.000000e-01,8,0,2,1,1,2,3,1.058835e+00,0,0,Left,Left,Right,Vertical,Foil primed,Right,None,Main study,C
5,1,5,2,5.000000e-02,6.703200e-02,1.340640e+00,76,50,3.185748e-01,2.666896e-01,1.333381e-01,8.334279e-02,8.149771e-06,4.000000e-01,134,1,3,1,1,2,3,1.008798e+00,1,1,Right,Right,Right,Vertical,Target primed,Right,None,Main study,C
5,1,5,2,5.000000e-02,6.703200e-02,1.340640e+00,76,55,3.184175e-01,3.666881e-01,3.333748e-02,8.334822e-02,7.244293e-06,4.000000e-01,34,0,3,0,0,2,3,9.838486e-01,0,1,Left,Left,Left,Vertical,Target primed,Left,None,Main study,C
5,1,5,2,5.000000e-02,6.703200e-02,1.340640e+00,76,40,3.186010e-01,3.666990e-01,3.335227e-02,8.332136e-02,7.546041e-06,4.000000e-01,34,0,3,0,0,2,3,8.005221e-01,0,1,Left,Left,Left,Vertical,Target primed,Left,None,Main study,C
5,1,5,2,5.000000e-02,6.703200e-02,1.340640e+00,76,45,3.187145e-01,3.666815e-01,3.335438e-02,8.333374e-02,7.546041e-06,4.000000e-01,34,1,3,1,1,2,3,7.921803e-01,0,0,Left,Right,Right,Vertical,Target primed,Right,None,Main study,C
5,1,5,2,5.000000e-02,6.703200e-02,1.340640e+00,76,40,3.186523e-01,3.667693e-01,3.323787e-02,8.333675e-02,7.848023e-06,4.000000e-01,34,1,2,0,0,2,3,9.422288e-01,0,1,Left,Right,Left,Vertical,Foil primed,Left,None,Main study,C
5,1,5,2,5.000000e-02,6.703200e-02,1.340640e+00,76,55,3.186714e-01,2.667013e-01,1.333475e-01,8.334521e-02,7.546041e-06,4.000000e-01,134,0,3,0,0,2,3,5.337800e-01,1,0,Right,Left,Left,Vertical,Target primed,Left,None,Main study,C
5,1,6,2,5.000000e-02,6.703200e-02,1.340640e+00,76,55,3.167836e-01,2.666884e-01,1.333418e-01,8.333766e-02,7.244293e-06,4.000000e-01,134,1,3,1,1,2,3,7.004680e-01,0,0,Left,Right,Right,Vertical,Target primed,Right,None,Main study,C
5,1,6,2,5.000000e-02,6.703200e-02,1.340640e+00,76,40,3.186620e-01,2.667119e-01,1.332923e-01,8.336271e-02,7.244293e-06,4.000000e-01,134,0,2,1,1,2,3,7.588305e-01,1,1,Right,Left,Right,Vertical,Foil primed,Right,None,Main study,C
5,1,6,2,5.000000e-02,6.703200e-02,1.340640e+00,76,35,3.186988e-01,2.666793e-01,1.333499e-01,8.335849e-02,7.848023e-06,4.000000e-01,134,1,3,1,1,2,3,8.171437e-01,1,1,Right,Right,Right,Vertical,Target primed,Right,None,Main study,C
5,1,6,2,5.000000e-02,6.703200e-02,1.340640e+00,76,45,3.187948e-01,3.916902e-01,8.324862e-03,8.333223e-02,7.546274e-06,4.000000e-01,8,0,3,0,0,2,3,7.755076e-01,1,0,Right,Left,Left,Vertical,Target primed,Left,None,Main study,C
5,1,6,2,5.000000e-02,6.703200e-02,1.340640e+00,76,55,3.186979e-01,3.666736e-01,3.335106e-02,8.331593e-02,7.244293e-06,4.000000e-01,34,1,3,1,1,2,3,5.254590e-01,1,1,Right,Right,Right,Vertical,Target primed,Right,None,Main study,C
5,1,6,2,5.000000e-02,6.703200e-02,1.340640e+00,76,50,3.170818e-01,3.667141e-01,3.333869e-02,8.346111e-02,7.546041e-06,4.000000e-01,34,1,2,0,0,2,3,6.420249e-01,1,0,Right,Right,Left,Vertical,Foil primed,Left,None,Main study,C
5,1,6,2,5.000000e-02,6.703200e-02,1.340640e+00,76,50,3.187906e-01,3.666854e-01,3.334472e-02,8.333645e-02,7.546274e-06,4.000000e-01,34,1,2,0,0,2,3,7.588250e-01,1,0,Right,Right,Left,Vertical,Foil primed,Left,None,Main study,C
5,1,6,2,5.000000e-02,6.703200e-02,1.340640e+00,76,35,3.187613e-01,2.667044e-01,1.333439e-01,8.332649e-02,7.244060e-06,4.000000e-01,134,0,2,1,1,2,3,7.254869e-01,0,0,Left,Left,Right,Vertical,Foil primed,Right,None,Main study,C
5,1,6,2,5.000000e-02,6.703200e-02,1.340640e+00,76,55,3.187634e-01,2.667409e-01,1.332995e-01,8.334309e-02,7.546041e-06,4.000000e-01,134,1,3,1,1,2,3,8.672046e-01,1,1,Right,Right,Right,Vertical,Target primed,Right,None,Main study,C
5,1,6,2,5.000000e-02,6.703200e-02,1.340640e+00,76,45,3.186321e-01,3.666990e-01,3.333899e-02,8.333796e-02,7.546041e-06,4.000000e-01,34,1,2,0,0,2,3,7.171844e-01,1,0,Right,Right,Left,Vertical,Foil primed,Left,None,Main study,C
5,1,6,2,5.000000e-02,6.703200e-02,1.340640e+00,76,55,3.187024e-01,3.667156e-01,3.333929e-02,8.330083e-02,7.546041e-06,4.000000e-01,34,1,3,1,1,2,3,5.922052e-01,0,0,Left,Right,Right,Vertical,Target primed,Right,None,Main study,C
5,1,6,2,5.000000e-02,6.703200e-02,1.340640e+00,76,55,3.187447e-01,2.667028e-01,1.333336e-01,8.334581e-02,7.546041e-06,4.000000e-01,134,0,2,1,1,2,3,9.505120e-01,1,1,Right,Left,Right,Vertical,Foil primed,Right,None,Main study,C
5,1,6,2,5.000000e-02,6.703200e-02,1.340640e+00,76,50,3.185554e-01,3.666993e-01,3.332329e-02,8.335305e-02,7.546041e-06,4.000000e-01,34,1,2,0,0,2,3,6.837971e-01,1,0,Right,Right,Left,Vertical,Foil primed,Left,None,Main study,C
5,1,6,2,5.000000e-02,6.703200e-02,1.340640e+00,76,50,3.106034e-01,2.666896e-01,1.333324e-01,8.337267e-02,7.848023e-06,4.000000e-01,134,1,2,0,0,2,3,6.505064e-01,0,1,Left,Right,Left,Vertical,Foil primed,Left,None,Main study,C
5,1,6,2,5.000000e-02,6.703200e-02,1.340640e+00,76,35,3.106758e-01,3.666794e-01,3.332027e-02,8.333947e-02,7.848023e-06,4.000000e-01,34,0,3,0,0,2,3,8.671762e-01,0,1,Left,Left,Left,Vertical,Target primed,Left,None,Main study,C
5,1,6,2,5.000000e-02,6.703200e-02,1.340640e+00,76,50,3.186620e-01,3.666863e-01,3.334080e-02,8.337026e-02,7.244293e-06,4.000000e-01,34,1,2,0,0,2,3,1.083830e+00,0,1,Left,Right,Left,Vertical,Foil primed,Left,None,Main study,C
5,1,6,2,5.000000e-02,6.703200e-02,1.340640e+00,76,40,3.185388e-01,3.917188e-01,8.339048e-03,8.331955e-02,7.848023e-06,4.000000e-01,8,1,2,0,0,2,3,6.921431e-01,0,1,Left,Right,Left,Vertical,Foil primed,Left,None,Main study,C
5,1,6,2,5.000000e-02,6.703200e-02,1.340640e+00,76,45,3.106544e-01,2.666162e-01,1.334230e-01,8.327729e-02,7.546041e-06,4.000000e-01,134,1,3,1,1,2,3,1.233888e+00,0,0,Left,Right,Right,Vertical,Target primed,Right,None,Main study,C
5,1,6,2,5.000000e-02,6.703200e-02,1.340640e+00,76,50,3.185666e-01,2.666760e-01,1.333635e-01,8.332227e-02,7.546274e-06,4.000000e-01,134,1,2,0,0,2,3,9.421890e-01,0,1,Left,Right,Left,Vertical,Foil primed,Left,None,Main study,C
5,1,6,2,5.000000e-02,6.703200e-02,1.340640e+00,76,50,3.186695e-01,3.917068e-01,8.332408e-03,8.332589e-02,7.847790e-06,4.000000e-01,8,1,3,1,1,2,3,4.754540e-01,1,1,Right,Right,Right,Vertical,Target primed,Right,None,Main study,C
5,1,6,2,5.000000e-02,6.703200e-02,1.340640e+00,76,40,3.106713e-01,3.916796e-01,8.356253e-03,8.331864e-02,7.848023e-06,4.000000e-01,8,0,3,0,0,2,3,1.092222e+00,0,1,Left,Left,Left,Vertical,Target primed,Left,None,Main study,C
5,1,6,2,5.000000e-02,6.703200e-02,1.340640e+00,76,40,3.185241e-01,3.917273e-01,8.336935e-03,8.333555e-02,7.546274e-06,4.000000e-01,8,0,2,1,1,2,3,7.671719e-01,1,1,Right,Left,Right,Vertical,Foil primed,Right,None,Main study,C
5,1,6,2,5.000000e-02,6.703200e-02,1.340640e+00,76,45,3.187963e-01,3.917680e-01,8.286829e-03,8.333675e-02,7.546041e-06,4.000000e-01,8,1,3,1,1,2,3,4.504405e-01,0,0,Left,Right,Right,Vertical,Target primed,Right,None,Main study,C
5,1,6,2,5.000000e-02,6.703200e-02,1.340640e+00,76,35,3.107202e-01,3.917019e-01,8.338143e-03,8.333796e-02,7.244293e-06,4.000000e-01,8,0,2,1,1,2,3,7.254782e-01,1,1,Right,Left,Right,Vertical,Foil primed,Right,None,Main study,C
5,1,6,2,5.000000e-02,6.703200e-02,1.340640e+00,76,45,3.188274e-01,2.666971e-01,1.333300e-01,8.333706e-02,7.546041e-06,4.000000e-01,134,1,2,0,0,2,3,5.338482e-01,0,1,Left,Right,Left,Vertical,Foil primed,Left,None,Main study,C
5,1,6,2,5.000000e-02,6.703200e-02,1.340640e+00,76,55,3.188748e-01,3.666936e-01,3.333808e-02,8.333887e-02,7.546041e-06,4.000000e-01,34,0,2,1,1,2,3,4.337932e-01,1,1,Right,Left,Right,Vertical,Foil primed,Right,None,Main study,C
5,1,6,2,5.000000e-02,6.703200e-02,1.340640e+00,76,40,3.107027e-01,2.666389e-01,1.333297e-01,8.336422e-02,7.546041e-06,4.000000e-01,134,1,2,0,0,2,3,3.004327e-01,0,1,Left,Right,Left,Vertical,Foil primed,Left,None,Main study,C
5,1,6,2,5.000000e-02,6.703200e-02,1.340640e+00,76,55,3.106960e-01,3.916745e-01,8.334521e-03,8.333796e-02,7.546041e-06,4.000000e-01,8,0,2,1,1,2,3,4.921499e-01,1,1,Right,Left,Right,Vertical,Foil primed,Right,None,Main study,C
5,1,6,2,5.000000e-02,6.703200e-02,1.340640e+00,76,45,3.188820e-01,3.667141e-01,3.333778e-02,8.334400e-02,7.546041e-06,4.000000e-01,34,0,3,0,0,2,3,5.004618e-01,1,0,Right,Left,Left,Vertical,Target primed,Left,None,Main study,C
5,1,6,2,5.000000e-02,6.703200e-02,1.340640e+00,76,50,3.188896e-01,3.666890e-01,3.336344e-02,8.332227e-02,7.546041e-06,4.000000e-01,34,0,3,0,0,2,3,4.837786e-01,1,0,Right,Left,Left,Vertical,Target primed,Left,None,Main study,C
5,1,6,2,5.000000e-02,6.703200e-02,1.340640e+00,76,45,3.189128e-01,3.666839e-01,3.335619e-02,8.335396e-02,7.546041e-06,4.000000e-01,34,1,2,0,0,2,3,4.587720e-01,0,1,Left,Right,Left,Vertical,Foil primed,Left,None,Main study,C
5,1,6,2,5.000000e-02,6.703200e-02,1.340640e+00,76,40,3.106281e-01,3.917255e-01,8.296488e-03,8.333555e-02,7.546041e-06,4.000000e-01,8,0,2,1,1,2,3,4.421479e-01,1,1,Right,Left,Right,Vertical,Foil primed,Right,None,Main study,C
5,1,6,2,5.000000e-02,6.703200e-02,1.340640e+00,76,35,3.106103e-01,3.667159e-01,3.332329e-02,8.333585e-02,7.546041e-06,4.000000e-01,34,0,3,0,0,2,3,4.338110e-01,0,1,Left,Left,Left,Vertical,Target primed,Left,None,Main study,C
5,1,6,2,5.000000e-02,6.703200e-02,1.340640e+00,76,35,3.106281e-01,2.666989e-01,1.333375e-01,8.333826e-02,7.546041e-06,4.000000e-01,134,0,2,1,1,2,3,3.671327e-01,1,1,Right,Left,Right,Vertical,Foil primed,Right,None,Main study,C
5,1,6,2,5.000000e-02,6.703200e-02,1.340640e+00,76,45,3.168461e-01,2.666841e-01,1.333653e-01,8.332136e-02,7.847790e-06,4.000000e-01,134,1,2,0,0,2,3,2.671251e-01,0,1,Left,Right,Left,Vertical,Foil primed,Left,None,Main study,C
5,1,6,2,5.000000e-02,6.703200e-02,1.340640e+00,76,40,3.107329e-01,2.666760e-01,1.333994e-01,8.326733e-02,7.847790e-06,4.000000e-01,134,0,3,0,0,2,3,4.087969e-01,0,1,Left,Left,Left,Vertical,Target primed,Left,None,Main study,C
5,1,6,2,5.000000e-02,6.703200e-02,1.340640e+00,76,55,3.188836e-01,3.917022e-01,8.338143e-03,8.333404e-02,7.546041e-06,4.000000e-01,8,0,3,0,0,2,3,3.337953e-01,0,1,Left,Left,Left,Vertical,Target primed,Left,None,Main study,C
5,1,6,2,5.000000e-02,6.703200e-02,1.340640e+00,76,50,3.104633e-01,3.667153e-01,3.337702e-02,8.328936e-02,7.546041e-06,4.000000e-01,34,0,2,1,1,2,3,3.588676e-01,0,0,Left,Left,Right,Vertical,Foil primed,Right,None,Main study,C
5,1,6,2,5.000000e-02,6.703200e-02,1.340640e+00,76,35,3.107268e-01,2.666893e-01,1.333484e-01,8.333736e-02,7.546041e-06,4.000000e-01,134,1,3,1,1,2,3,3.754679e-01,0,0,Left,Right,Right,Vertical,Target primed,Right,None,Main study,C
5,1,6,2,5.000000e-02,6.703200e-02,1.340640e+00,76,40,3.106797e-01,3.667518e-01,3.328435e-02,8.339773e-02,1.026248e-05,4.000000e-01,34,1,2,0,0,2,3,8.504350e-01,1,0,Right,Right,Left,Vertical,Foil primed,Left,None,Main study,C
5,1,6,2,5.000000e-02,6.703200e-02,1.340640e+00,76,55,3.187148e-01,2.666615e-01,1.333593e-01,8.334249e-02,7.244293e-06,4.000000e-01,134,0,3,0,0,2,3,6.088024e-01,0,1,Left,Left,Left,Vertical,Target primed,Left,None,Main study,C
5,1,6,2,5.000000e-02,6.703200e-02,1.340640e+00,76,55,3.106610e-01,2.666633e-01,1.333668e-01,8.332045e-02,7.546041e-06,4.000000e-01,134,1,3,1,1,2,3,4.171495e-01,1,1,Right,Right,Right,Vertical,Target primed,Right,None,Main study,C
5,1,6,2,5.000000e-02,6.703200e-02,1.340640e+00,76,35,3.105946e-01,3.917228e-01,8.342972e-03,8.333132e-02,7.244293e-06,4.000000e-01,8,1,3,1,1,2,3,3.837816e-01,0,0,Left,Right,Right,Vertical,Target primed,Right,None,Main study,C
5,1,6,2,5.000000e-02,6.703200e-02,1.340640e+00,76,50,3.106577e-01,3.917098e-01,8.320938e-03,8.333585e-02,7.848023e-06,4.000000e-01,8,0,2,1,1,2,3,4.088071e-01,0,0,Left,Left,Right,Vertical,Foil primed,Right,None,Main study,C
5,1,6,2,5.000000e-02,6.703200e-02,1.340640e+00,76,50,3.105164e-01,3.917035e-01,8.336030e-03,8.336151e-02,7.546274e-06,4.000000e-01,8,0,2,1,1,2,3,1.283833e+00,0,0,Left,Left,Right,Vertical,Foil primed,Right,None,Main study,C
5,1,6,2,5.000000e-02,6.703200e-02,1.340640e+00,76,35,3.183608e-01,3.666721e-01,3.339724e-02,8.329419e-02,7.244293e-06,4.000000e-01,34,1,3,1,1,2,3,4.921373e-01,1,1,Right,Right,Right,Vertical,Target primed,Right,None,Main study,C
5,1,6,2,5.000000e-02,6.703200e-02,1.340640e+00,76,55,3.188745e-01,3.916944e-01,8.336935e-03,8.335185e-02,7.546274e-06,4.000000e-01,8,0,2,1,1,2,3,8.588233e-01,1,1,Right,Left,Right,Vertical,Foil primed,Right,None,Main study,C
5,1,6,2,5.000000e-02,6.703200e-02,1.340640e+00,76,35,3.186898e-01,3.667147e-01,3.332873e-02,8.332136e-02,7.546041e-06,4.000000e-01,34,0,2,1,1,2,3,6.005032e-01,0,0,Left,Left,Right,Vertical,Foil primed,Right,None,Main study,C
5,1,6,2,5.000000e-02,6.703200e-02,1.340640e+00,76,45,3.106508e-01,3.666827e-01,3.335619e-02,8.331804e-02,7.546041e-06,4.000000e-01,34,0,2,1,1,2,3,1.067214e+00,1,1,Right,Left,Right,Vertical,Foil primed,Right,None,Main study,C
5,1,6,2,5.000000e-02,6.703200e-02,1.340640e+00,76,35,3.185579e-01,3.666914e-01,3.332993e-02,8.334490e-02,7.848023e-06,4.000000e-01,34,0,3,0,0,2,3,8.171458e-01,0,1,Left,Left,Left,Vertical,Target primed,Left,None,Main study,C
5,1,6,2,5.000000e-02,6.703200e-02,1.340640e+00,76,55,3.184851e-01,2.666745e-01,1.333629e-01,8.333706e-02,7.546041e-06,4.000000e-01,134,1,2,0,0,2,3,8.338263e-01,0,1,Left,Right,Left,Vertical,Foil primed,Left,None,Main study,C
5,1,6,2,5.000000e-02,6.703200e-02,1.340640e+00,76,55,3.187148e-01,3.667195e-01,3.330337e-02,8.335215e-02,7.546041e-06,4.000000e-01,34,0,2,1,1,2,3,8.254526e-01,1,1,Right,Left,Right,Vertical,Foil primed,Right,None,Main study,C
5,1,6,2,5.000000e-02,6.703200e-02,1.340640e+00,76,50,3.185959e-01,2.666887e-01,1.333318e-01,8.335456e-02,7.244293e-06,4.000000e-01,134,0,2,1,1,2,3,1.167232e+00,1,1,Right,Left,Right,Vertical,Foil primed,Right,None,Main study,C
5,1,6,2,5.000000e-02,6.703200e-02,1.340640e+00,76,35,3.182904e-01,2.666724e-01,1.333490e-01,8.335275e-02,7.546041e-06,4.000000e-01,134,1,3,1,1,2,3,6.754913e-01,0,0,Left,Right,Right,Vertical,Target primed,Right,None,Main study,C
5,1,6,2,5.000000e-02,6.703200e-02,1.340640e+00,76,35,3.188063e-01,2.666521e-01,1.333879e-01,8.333645e-02,7.546041e-06,4.000000e-01,134,1,2,0,0,2,3,7.671583e-01,0,1,Left,Right,Left,Vertical,Foil primed,Left,None,Main study,C
5,1,6,2,5.000000e-02,6.703200e-02,1.340640e+00,76,40,3.186182e-01,2.666905e-01,1.333300e-01,8.333947e-02,7.546041e-06,4.000000e-01,134,0,3,0,0,2,3,8.588842e-01,0,1,Left,Left,Left,Vertical,Target primed,Left,None,Main study,C
5,1,6,2,5.000000e-02,6.703200e-02,1.340640e+00,76,35,3.186321e-01,3.667044e-01,3.334502e-02,8.331261e-02,7.546274e-06,4.000000e-01,34,0,3,0,0,2,3,9.172177e-01,0,1,Left,Left,Left,Vertical,Target primed,Left,None,Main study,C
5,1,6,2,5.000000e-02,6.703200e-02,1.340640e+00,76,55,3.187142e-01,3.917001e-01,8.389456e-03,8.326371e-02,7.244293e-06,4.000000e-01,8,0,2,1,1,2,3,6.255131e-01,0,0,Left,Left,Right,Vertical,Foil primed,Right,None,Main study,C
5,1,6,2,5.000000e-02,6.703200e-02,1.340640e+00,76,35,3.187791e-01,3.916802e-01,8.334521e-03,8.339712e-02,7.546041e-06,4.000000e-01,8,0,2,1,1,2,3,5.087761e-01,1,1,Right,Left,Right,Vertical,Foil primed,Right,None,Main study,C
5,1,6,2,5.000000e-02,6.703200e-02,1.340640e+00,76,50,3.188676e-01,3.916989e-01,8.351122e-03,8.330898e-02,7.546274e-06,4.000000e-01,8,0,3,0,0,2,3,1.100530e+00,0,1,Left,Left,Left,Vertical,Target primed,Left,None,Main study,C
5,1,7,2,5.000000e-02,6.703200e-02,1.340640e+00,76,35,3.135095e-01,3.917167e-01,8.320636e-03,8.332498e-02,7.546041e-06,4.000000e-01,8,1,2,0,0,2,3,8.168950e-01,1,0,Right,Right,Left,Vertical,Foil primed,Left,None,Main study,C
5,1,7,2,5.000000e-02,6.703200e-02,1.340640e+00,76,40,3.186904e-01,3.667026e-01,3.331937e-02,8.335336e-02,7.546041e-06,4.000000e-01,34,0,2,1,1,2,3,1.167149e+00,1,1,Right,Left,Right,Vertical,Foil primed,Right,None,Main study,C
5,1,7,2,5.000000e-02,6.703200e-02,1.340640e+00,76,35,3.185238e-01,3.916527e-01,8.331804e-03,8.336784e-02,7.244293e-06,4.000000e-01,8,1,2,0,0,2,3,5.254563e-01,0,1,Left,Right,Left,Vertical,Foil primed,Left,None,Main study,C
5,1,7,2,5.000000e-02,6.703200e-02,1.340640e+00,76,40,3.188790e-01,3.917119e-01,8.320032e-03,8.335396e-02,7.244293e-06,4.000000e-01,8,0,2,1,1,2,3,1.150531e+00,0,0,Left,Left,Right,Vertical,Foil primed,Right,None,Main study,C
5,1,7,2,5.000000e-02,6.703200e-02,1.340640e+00,76,40,3.183122e-01,3.667171e-01,3.334502e-02,8.332921e-02,7.546041e-06,4.000000e-01,34,0,3,0,0,2,3,7.754880e-01,0,1,Left,Left,Left,Vertical,Target primed,Left,None,Main study,C
5,1,7,2,5.000000e-02,6.703200e-02,1.340640e+00,76,50,3.187746e-01,3.916929e-01,8.337237e-03,8.333645e-02,7.848023e-06,4.000000e-01,8,1,3,1,1,2,3,4.337962e-01,1,1,Right,Right,Right,Vertical,Target primed,Right,None,Main study,C
5,1,7,2,5.000000e-02,6.703200e-02,1.340640e+00,76,45,3.106091e-01,3.666990e-01,3.334835e-02,8.330234e-02,7.546041e-06,4.000000e-01,34,0,3,0,0,2,3,5.838345e-01,0,1,Left,Left,Left,Vertical,Target primed,Left,None,Main study,C
5,1,7,2,5.000000e-02,6.703200e-02,1.340640e+00,76,35,3.188691e-01,3.917010e-01,8.356857e-03,8.331653e-02,7.546041e-06,4.000000e-01,8,1,2,0,0,2,3,7.088257e-01,0,1,Left,Right,Left,Vertical,Foil primed,Left,None,Main study,C
5,1,7,2,5.000000e-02,6.703200e-02,1.340640e+00,76,40,3.185141e-01,3.917140e-01,8.344179e-03,8.331170e-02,7.546041e-06,4.000000e-01,8,0,3,0,0,2,3,4.504918e-01,0,1,Left,Left,Left,Vertical,Target primed,Left,None,Main study,C
5,1,7,2,5.000000e-02,6.703200e-02,1.340640e+00,76,35,3.187761e-01,3.916600e-01,8.352933e-03,8.332257e-02,7.847790e-06,4.000000e-01,8,1,3,1,1,2,3,7.588172e-01,1,1,Right,Right,Right,Vertical,Target primed,Right,None,Main study,C
5,1,7,2,5.000000e-02,6.703200e-02,1.340640e+00,76,55,3.186723e-01,2.667001e-01,1.333556e-01,8.333192e-02,7.546274e-06,4.000000e-01,134,0,3,0,0,2,3,5.755676e-01,0,1,Left,Left,Left,Vertical,Target primed,Left,None,Main study,C
5,1,7,2,5.000000e-02,6.703200e-02,1.340640e+00,76,50,3.188202e-01,2.667053e-01,1.333698e-01,8.331653e-02,7.546041e-06,4.000000e-01,134,0,2,1,1,2,3,4.837834e-01,1,1,Right,Left,Right,Vertical,Foil primed,Right,None,Main study,C
5,1,7,2,5.000000e-02,6.703200e-02,1.340640e+00,76,50,3.106399e-01,3.917001e-01,8.320938e-03,8.335456e-02,7.244293e-06,4.000000e-01,8,0,3,0,0,2,3,9.338409e-01,1,0,Right,Left,Left,Vertical,Target primed,Left,None,Main study,C
5,1,7,2,5.000000e-02,6.703200e-02,1.340640e+00,76,35,3.186514e-01,2.667044e-01,1.333526e-01,8.333464e-02,7.546041e-06,4.000000e-01,134,0,3,0,0,2,3,5.671839e-01,0,1,Left,Left,Left,Vertical,Target primed,Left,None,Main study,C
5,1,7,2,5.000000e-02,6.703200e-02,1.340640e+00,76,50,3.187495e-01,2.666899e-01,1.333484e-01,8.333706e-02,7.546041e-06,4.000000e-01,134,1,2,0,0,2,3,5.171378e-01,0,1,Left,Right,Left,Vertical,Foil primed,Left,None,Main study,C
5,1,7,2,5.000000e-02,6.703200e-02,1.340640e+00,76,45,3.187432e-01,3.916612e-01,8.371345e-03,8.331985e-02,7.546041e-06,4.000000e-01,8,0,2,1,1,2,3,5.838058e-01,1,1,Right,Left,Right,Vertical,Foil primed,Right,None,Main study,C
5,1,7,2,5.000000e-02,6.703200e-02,1.340640e+00,76,55,3.188057e-01,3.667041e-01,3.334050e-02,8.332015e-02,7.847790e-06,4.000000e-01,34,1,2,0,0,2,3,5.588056e-01,0,1,Left,Right,Left,Vertical,Foil primed,Left,None,Main study,C
5,1,7,2,5.000000e-02,6.703200e-02,1.340640e+00,76,45,3.187556e-01,3.667177e-01,3.330397e-02,8.335366e-02,7.546041e-06,4.000000e-01,34,0,2,1,1,2,3,5.838167e-01,1,1,Right,Left,Right,Vertical,Foil primed,Right,None,Main study,C
5,1,7,2,5.000000e-02,6.703200e-02,1.340640e+00,76,35,3.106495e-01,3.667654e-01,3.335861e-02,8.322688e-02,8.149771e-06,4.000000e-01,34,0,2,1,1,2,3,5.421329e-01,1,1,Right,Left,Right,Vertical,Foil primed,Right,None,Main study,C
5,1,7,2,5.000000e-02,6.703200e-02,1.340640e+00,76,50,3.188682e-01,2.666748e-01,1.333638e-01,8.337509e-02,7.546041e-06,4.000000e-01,134,0,3,0,0,2,3,4.754305e-01,1,0,Right,Left,Left,Vertical,Target primed,Left,None,Main study,C
5,1,7,2,5.000000e-02,6.703200e-02,1.340640e+00,76,50,3.188024e-01,2.666814e-01,1.333490e-01,8.334068e-02,7.546041e-06,4.000000e-01,134,0,3,0,0,2,3,4.587916e-01,1,0,Right,Left,Left,Vertical,Target primed,Left,None,Main study,C
5,1,7,2,5.000000e-02,6.703200e-02,1.340640e+00,76,40,3.107244e-01,3.667168e-01,3.331001e-02,8.334822e-02,7.848023e-06,4.000000e-01,34,1,3,1,1,2,3,1.133867e+00,1,1,Right,Right,Right,Vertical,Target primed,Right,None,Main study,C
5,1,7,2,5.000000e-02,6.703200e-02,1.340640e+00,76,45,3.185250e-01,2.666890e-01,1.333478e-01,8.333555e-02,7.546041e-06,4.000000e-01,134,1,2,0,0,2,3,5.837750e-01,0,1,Left,Right,Left,Vertical,Foil primed,Left,None,Main study,C
5,1,7,2,5.000000e-02,6.703200e-02,1.340640e+00,76,35,3.187577e-01,3.667074e-01,3.334020e-02,8.334189e-02,7.848023e-06,4.000000e-01,34,1,3,1,1,2,3,8.921535e-01,0,0,Left,Right,Right,Vertical,Target primed,Right,None,Main study,C
5,1,7,2,5.000000e-02,6.703200e-02,1.340640e+00,76,45,3.187317e-01,2.666856e-01,1.333484e-01,8.335517e-02,7.546274e-06,4.000000e-01,134,1,3,1,1,2,3,8.421621e-01,1,1,Right,Right,Right,Vertical,Target primed,Right,None,Main study,C
5,1,7,2,5.000000e-02,6.703200e-02,1.340640e+00,76,40,3.186535e-01,3.667135e-01,3.334533e-02,8.335094e-02,7.546041e-06,4.000000e-01,34,0,2,1,1,2,3,5.337993e-01,1,1,Right,Left,Right,Vertical,Foil primed,Right,None,Main study,C
5,1,7,2,5.000000e-02,6.703200e-02,1.340640e+00,76,55,3.189095e-01,2.666899e-01,1.333499e-01,8.332076e-02,7.244293e-06,4.000000e-01,134,0,3,0,0,2,3,7.838277e-01,0,1,Left,Left,Left,Vertical,Target primed,Left,None,Main study,C
5,1,7,2,5.000000e-02,6.703200e-02,1.340640e+00,76,45,3.188268e-01,2.666986e-01,1.333629e-01,8.331472e-02,7.546274e-06,4.000000e-01,134,1,3,1,1,2,3,6.004709e-01,1,1,Right,Right,Right,Vertical,Target primed,Right,None,Main study,C
5,1,7,2,5.000000e-02,6.703200e-02,1.340640e+00,76,55,3.189050e-01,3.667159e-01,3.332390e-02,8.333675e-02,7.244293e-06,4.000000e-01,34,1,3,1,1,2,3,4.754749e-01,0,0,Left,Right,Right,Vertical,Target primed,Right,None,Main study,C
5,1,7,2,5.000000e-02,6.703200e-02,1.340640e+00,76,35,3.188374e-01,3.666993e-01,3.334050e-02,8.334883e-02,7.244293e-06,4.000000e-01,34,0,2,1,1,2,3,4.254563e-01,1,1,Right,Left,Right,Vertical,Foil primed,Right,None,Main study,C
5,1,7,2,5.000000e-02,6.703200e-02,1.340640e+00,76,35,3.188679e-01,3.667132e-01,3.333748e-02,8.332227e-02,7.546041e-06,4.000000e-01,34,1,3,1,1,2,3,5.337896e-01,1,1,Right,Right,Right,Vertical,Target primed,Right,None,Main study,C
5,1,7,2,5.000000e-02,6.703200e-02,1.340640e+00,76,55,3.188733e-01,3.916627e-01,8.355650e-03,8.331563e-02,7.244293e-06,4.000000e-01,8,1,3,1,1,2,3,1.000514e+00,1,1,Right,Right,Right,Vertical,Target primed,Right,None,Main study,C
5,1,7,2,5.000000e-02,6.703200e-02,1.340640e+00,76,45,3.186116e-01,3.667005e-01,3.335680e-02,8.330355e-02,7.847790e-06,4.000000e-01,34,0,2,1,1,2,3,4.754667e-01,1,1,Right,Left,Right,Vertical,Foil primed,Right,None,Main study,C
5,1,7,2,5.000000e-02,6.703200e-02,1.340640e+00,76,35,3.105979e-01,3.667231e-01,3.332873e-02,8.333766e-02,7.244293e-06,4.000000e-01,34,1,3,1,1,2,3,4.588007e-01,1,1,Right,Right,Right,Vertical,Target primed,Right,None,Main study,C
5,1,7,2,5.000000e-02,6.703200e-02,1.340640e+00,76,40,3.189321e-01,2.666902e-01,1.333363e-01,8.333796e-02,7.847790e-06,4.000000e-01,134,0,2,1,1,2,3,4.172361e-01,1,1,Right,Left,Right,Vertical,Foil primed,Right,None,Main study,C
5,1,7,2,5.000000e-02,6.703200e-02,1.340640e+00,76,35,3.106447e-01,3.666842e-01,3.335589e-02,8.336422e-02,7.546041e-06,4.000000e-01,34,1,2,0,0,2,3,9.338059e-01,0,1,Left,Right,Left,Vertical,Foil primed,Left,None,Main study,C
5,1,7,2,5.000000e-02,6.703200e-02,1.340640e+00,76,50,3.185917e-01,3.916914e-01,8.352329e-03,8.332015e-02,7.244293e-06,4.000000e-01,8,0,2,1,1,2,3,4.504656e-01,1,1,Right,Left,Right,Vertical,Foil primed,Right,None,Main study,C
5,1,7,2,5.000000e-02,6.703200e-02,1.340640e+00,76,55,3.106028e-01,3.917134e-01,8.305845e-03,8.335456e-02,7.848023e-06,4.000000e-01,8,1,2,0,0,2,3,5.504677e-01,0,1,Left,Right,Left,Vertical,Foil primed,Left,None,Main study,C
5,1,7,2,5.000000e-02,6.703200e-02,1.340640e+00,76,40,3.188962e-01,2.666878e-01,1.333502e-01,8.333736e-02,7.546041e-06,4.000000e-01,134,0,2,1,1,2,3,3.921810e-01,1,1,Right,Left,Right,Vertical,Foil primed,Right,None,Main study,C
5,1,7,2,5.000000e-02,6.703200e-02,1.340640e+00,76,35,3.107787e-01,2.667584e-01,1.332579e-01,8.336815e-02,7.546274e-06,4.000000e-01,134,1,2,0,0,2,3,4.671729e-01,0,1,Left,Right,Left,Vertical,Foil primed,Left,None,Main study,C
5,1,7,2,5.000000e-02,6.703200e-02,1.340640e+00,76,50,3.188304e-01,2.666727e-01,1.333641e-01,8.333706e-02,7.244293e-06,4.000000e-01,134,0,3,0,0,2,3,6.838050e-01,1,0,Right,Left,Left,Vertical,Target primed,Left,None,Main study,C
5,1,7,2,5.000000e-02,6.703200e-02,1.340640e+00,76,35,3.187094e-01,3.667144e-01,3.335891e-02,8.331502e-02,7.546041e-06,4.000000e-01,34,1,2,0,0,2,3,4.754848e-01,0,1,Left,Right,Left,Vertical,Foil primed,Left,None,Main study,C
5,1,7,2,5.000000e-02,6.703200e-02,1.340640e+00,76,40,3.188368e-01,2.667068e-01,1.333336e-01,8.334883e-02,7.848023e-06,4.000000e-01,134,0,2,1,1,2,3,4.420997e-01,1,1,Right,Left,Right,Vertical,Foil primed,Right,None,Main study,C
5,1,7,2,5.000000e-02,6.703200e-02,1.340640e+00,76,40,3.108654e-01,3.666444e-01,3.336012e-02,8.331593e-02,7.546274e-06,4.000000e-01,34,1,3,1,1,2,3,5.671655e-01,1,1,Right,Right,Right,Vertical,Target primed,Right,None,Main study,C
5,1,7,2,5.000000e-02,6.703200e-02,1.340640e+00,76,55,3.186988e-01,3.917028e-01,8.322749e-03,8.333525e-02,7.848023e-06,4.000000e-01,8,1,3,1,1,2,3,4.587971e-01,1,1,Right,Right,Right,Vertical,Target primed,Right,None,Main study,C
5,1,7,2,5.000000e-02,6.703200e-02,1.340640e+00,76,50,3.106498e-01,3.917388e-01,8.295583e-03,8.332076e-02,7.546041e-06,4.000000e-01,8,0,3,0,0,2,3,6.004767e-01,0,1,Left,Left,Left,Vertical,Target primed,Left,None,Main study,C
5,1,7,2,5.000000e-02,6.703200e-02,1.340640e+00,76,50,3.186563e-01,3.917041e-01,8.319126e-03,8.334158e-02,7.848023e-06,4.000000e-01,8,0,3,0,0,2,3,4.754555e-01,0,1,Left,Left,Left,Vertical,Target primed,Left,None,Main study,C
5,1,7,2,5.000000e-02,6.703200e-02,1.340640e+00,76,45,3.106290e-01,3.917107e-01,8.336332e-03,8.337781e-02,7.546041e-06,4.000000e-01,8,1,3,1,1,2,3,3.504368e-01,1,1,Right,Right,Right,Vertical,Target primed,Right,None,Main study,C
5,1,7,2,5.000000e-02,6.703200e-02,1.340640e+00,76,40,3.188962e-01,3.667114e-01,3.330126e-02,8.336483e-02,7.848023e-06,4.000000e-01,34,1,3,1,1,2,3,5.087719e-01,1,1,Right,Right,Right,Vertical,Target primed,Right,None,Main study,C
5,1,7,2,5.000000e-02,6.703200e-02,1.340640e+00,76,40,3.168890e-01,2.666769e-01,1.333463e-01,8.339471e-02,7.848023e-06,4.000000e-01,134,1,2,0,0,2,3,4.170988e-01,0,1,Left,Right,Left,Vertical,Foil primed,Left,None,Main study,C
5,1,7,2,5.000000e-02,6.703200e-02,1.340640e+00,76,45,3.106541e-01,2.666887e-01,1.333378e-01,8.333615e-02,7.847790e-06,4.000000e-01,134,0,2,1,1,2,3,3.754630e-01,1,1,Right,Left,Right,Vertical,Foil primed,Right,None,Main study,C
5,1,7,2,5.000000e-02,6.703200e-02,1.340640e+00,76,55,3.106933e-01,3.667147e-01,3.330729e-02,8.334521e-02,7.546041e-06,4.000000e-01,34,1,3,1,1,2,3,4.254674e-01,1,1,Right,Right,Right,Vertical,Target primed,Right,None,Main study,C
5,1,7,2,5.000000e-02,6.703200e-02,1.340640e+00,76,50,3.105611e-01,3.667171e-01,3.333657e-02,8.334822e-02,7.546041e-06,4.000000e-01,34,1,3,1,1,2,3,4.504423e-01,0,0,Left,Right,Right,Vertical,Target primed,Right,None,Main study,C
5,1,7,2,5.000000e-02,6.703200e-02,1.340640e+00,76,35,3.106360e-01,2.666935e-01,1.333342e-01,8.334128e-02,7.546041e-06,4.000000e-01,134,1,2,0,0,2,3,4.921264e-01,0,1,Left,Right,Left,Vertical,Foil primed,Left,None,Main study,C
5,1,7,2,5.000000e-02,6.703200e-02,1.340640e+00,76,40,3.189029e-01,3.916841e-01,8.351424e-03,8.332649e-02,8.149771e-06,4.000000e-01,8,0,2,1,1,2,3,5.254624e-01,1,1,Right,Left,Right,Vertical,Foil primed,Right,None,Main study,C
5,1,7,2,5.000000e-02,6.703200e-02,1.340640e+00,76,45,3.189104e-01,3.916872e-01,8.352028e-03,8.332045e-02,7.546041e-06,4.000000e-01,8,1,2,0,0,2,3,9.255628e-01,0,1,Left,Right,Left,Vertical,Foil primed,Left,None,Main study,C
5,1,7,2,5.000000e-02,6.703200e-02,1.340640e+00,76,40,3.186831e-01,3.667095e-01,3.332933e-02,8.333917e-02,7.244293e-06,4.000000e-01,34,0,2,1,1,2,3,4.087908e-01,1,1,Right,Left,Right,Vertical,Foil primed,Right,None,Main study,C
5,1,7,2,5.000000e-02,6.703200e-02,1.340640e+00,76,55,3.106541e-01,2.667116e-01,1.333375e-01,8.332377e-02,7.546274e-06,4.000000e-01,134,1,2,0,0,2,3,5.254925e-01,0,1,Left,Right,Left,Vertical,Foil primed,Left,None,Main study,C
5,1,7,2,5.000000e-02,6.703200e-02,1.340640e+00,76,35,3.188196e-01,3.666839e-01,3.335831e-02,8.333555e-02,7.546041e-06,4.000000e-01,34,0,2,1,1,2,3,3.504462e-01,1,1,Right,Left,Right,Vertical,Foil primed,Right,None,Main study,C
5,1,7,2,5.000000e-02,6.703200e-02,1.340640e+00,76,55,3.106707e-01,2.667019e-01,1.333572e-01,8.332045e-02,7.848023e-06,4.000000e-01,134,0,3,0,0,2,3,6.755692e-01,0,1,Left,Left,Left,Vertical,Target primed,Left,None,Main study,C
5,1,8,2,5.000000e-02,6.703200e-02,1.340640e+00,76,50,3.143782e-01,3.920231e-01,8.318523e-03,8.335788e-02,7.546041e-06,4.000000e-01,8,0,2,1,1,2,3,5.254424e-01,1,1,Right,Left,Right,Vertical,Foil primed,Right,None,Main study,C
5,1,8,2,5.000000e-02,6.703200e-02,1.340640e+00,76,35,3.185026e-01,3.916733e-01,8.337237e-03,8.333645e-02,7.546274e-06,4.000000e-01,8,1,2,0,0,2,3,4.754697e-01,0,1,Left,Right,Left,Vertical,Foil primed,Left,None,Main study,C
5,1,8,2,5.000000e-02,6.703200e-02,1.340640e+00,76,55,3.186864e-01,2.666893e-01,1.333683e-01,8.330204e-02,7.848023e-06,4.000000e-01,134,0,2,1,1,2,3,4.004823e-01,1,1,Right,Left,Right,Vertical,Foil primed,Right,None,Main study,C
5,1,8,2,5.000000e-02,6.703200e-02,1.340640e+00,76,40,3.188540e-01,3.667002e-01,3.332148e-02,8.336513e-02,7.546274e-06,4.000000e-01,34,0,2,1,1,2,3,7.671336e-01,1,1,Right,Left,Right,Vertical,Foil primed,Right,None,Main study,C
5,1,8,2,5.000000e-02,6.703200e-02,1.340640e+00,76,55,3.187806e-01,3.667370e-01,3.329311e-02,8.336181e-02,7.546041e-06,4.000000e-01,34,0,3,0,0,2,3,4.671153e-01,0,1,Left,Left,Left,Vertical,Target primed,Left,None,Main study,C
5,1,8,2,5.000000e-02,6.703200e-02,1.340640e+00,76,40,3.188319e-01,2.667035e-01,1.336261e-01,8.306359e-02,8.451752e-06,4.000000e-01,134,0,3,0,0,2,3,5.754296e-01,0,1,Left,Left,Left,Vertical,Target primed,Left,None,Main study,C
5,1,8,2,5.000000e-02,6.703200e-02,1.340640e+00,76,50,3.188226e-01,2.666890e-01,1.333327e-01,8.333796e-02,7.848023e-06,4.000000e-01,134,1,2,0,0,2,3,4.505244e-01,0,1,Left,Right,Left,Vertical,Foil primed,Left,None,Main study,C
5,1,8,2,5.000000e-02,6.703200e-02,1.340640e+00,76,40,3.105837e-01,3.917167e-01,8.357159e-03,8.331744e-02,7.546274e-06,4.000000e-01,8,1,3,1,1,2,3,2.920958e-01,1,1,Right,Right,Right,Vertical,Target primed,Right,None,Main study,C
5,1,8,2,5.000000e-02,6.703200e-02,1.340640e+00,76,50,3.106981e-01,2.666702e-01,1.333493e-01,8.332287e-02,8.149771e-06,4.000000e-01,134,0,3,0,0,2,3,4.004482e-01,1,0,Right,Left,Left,Vertical,Target primed,Left,None,Main study,C
5,1,8,2,5.000000e-02,6.703200e-02,1.340640e+00,76,45,3.106607e-01,3.666975e-01,3.333989e-02,8.333917e-02,7.546041e-06,4.000000e-01,34,1,3,1,1,2,3,5.504629e-01,1,1,Right,Right,Right,Vertical,Target primed,Right,None,Main study,C
5,1,8,2,5.000000e-02,6.703200e-02,1.340640e+00,76,45,3.188310e-01,3.916802e-01,8.352028e-03,8.334249e-02,7.546041e-06,4.000000e-01,8,1,2,0,0,2,3,5.921352e-01,1,0,Right,Right,Left,Vertical,Foil primed,Left,None,Main study,C
5,1,8,2,5.000000e-02,6.703200e-02,1.340640e+00,76,35,3.188639e-01,3.916784e-01,8.386438e-03,8.330476e-02,7.546041e-06,4.000000e-01,8,0,3,0,0,2,3,9.004989e-01,0,1,Left,Left,Left,Vertical,Target primed,Left,None,Main study,C
5,1,8,2,5.000000e-02,6.703200e-02,1.340640e+00,76,50,3.186541e-01,2.666881e-01,1.333481e-01,8.332287e-02,7.848023e-06,4.000000e-01,134,0,3,0,0,2,3,8.422098e-01,0,1,Left,Left,Left,Vertical,Target primed,Left,None,Main study,C
5,1,8,2,5.000000e-02,6.703200e-02,1.340640e+00,76,35,3.186738e-01,3.916905e-01,8.346896e-03,8.332166e-02,7.546041e-06,4.000000e-01,8,0,3,0,0,2,3,5.004848e-01,0,1,Left,Left,Left,Vertical,Target primed,Left,None,Main study,C
5,1,8,2,5.000000e-02,6.703200e-02,1.340640e+00,76,35,3.106281e-01,2.667690e-01,1.333297e-01,8.329751e-02,7.546041e-06,4.000000e-01,134,0,3,0,0,2,3,7.338088e-01,0,1,Left,Left,Left,Vertical,Target primed,Left,None,Main study,C
5,1,8,2,5.000000e-02,6.703200e-02,1.340640e+00,76,35,3.187103e-01,3.917261e-01,8.326673e-03,8.335305e-02,7.244293e-06,4.000000e-01,8,1,2,0,0,2,3,6.754756e-01,0,1,Left,Right,Left,Vertical,Foil primed,Left,None,Main study,C
5,1,8,2,5.000000e-02,6.703200e-02,1.340640e+00,76,35,3.169714e-01,3.667207e-01,3.335800e-02,8.331864e-02,7.546274e-06,4.000000e-01,34,1,3,1,1,2,3,4.921753e-01,1,1,Right,Right,Right,Vertical,Target primed,Right,None,Main study,C
5,1,8,2,5.000000e-02,6.703200e-02,1.340640e+00,76,40,3.107039e-01,3.666748e-01,3.333899e-02,8.335245e-02,7.546274e-06,4.000000e-01,34,0,2,1,1,2,3,4.254632e-01,1,1,Right,Left,Right,Vertical,Foil primed,Right,None,Main study,C
5,1,8,2,5.000000e-02,6.703200e-02,1.340640e+00,76,55,3.106692e-01,2.666709e-01,1.333680e-01,8.335426e-02,7.546041e-06,4.000000e-01,134,0,2,1,1,2,3,4.087836e-01,1,1,Right,Left,Right,Vertical,Foil primed,Right,None,Main study,C
5,1,8,2,5.000000e-02,6.703200e-02,1.340640e+00,76,45,3.107534e-01,2.666859e-01,1.333535e-01,8.333585e-02,7.244293e-06,4.000000e-01,134,1,2,0,0,2,3,4.920835e-01,0,1,Left,Right,Left,Vertical,Foil primed,Left,None,Main study,C
5,1,8,2,5.000000e-02,6.703200e-02,1.340640e+00,76,55,3.106399e-01,2.666917e-01,1.333617e-01,8.333947e-02,1.660129e-05,4.000000e-01,134,0,2,1,1,2,3,3.421147e-01,1,1,Right,Left,Right,Vertical,Foil primed,Right,None,Main study,C
5,1,8,2,5.000000e-02,6.703200e-02,1.340640e+00,76,50,3.106658e-01,3.667089e-01,3.333627e-02,8.336151e-02,7.546041e-06,4.000000e-01,34,1,3,1,1,2,3,3.504655e-01,1,1,Right,Right,Right,Vertical,Target primed,Right,None,Main study,C
5,1,8,2,5.000000e-02,6.703200e-02,1.340640e+00,76,45,3.188863e-01,3.917031e-01,8.332408e-03,8.331744e-02,7.848023e-06,4.000000e-01,8,1,3,1,1,2,3,4.421223e-01,1,1,Right,Right,Right,Vertical,Target primed,Right,None,Main study,C
5,1,8,2,5.000000e-02,6.703200e-02,1.340640e+00,76,50,3.188138e-01,3.916558e-01,8.382212e-03,8.330627e-02,7.546041e-06,4.000000e-01,8,0,2,1,1,2,3,3.671167e-01,0,0,Left,Left,Right,Vertical,Foil primed,Right,None,Main study,C
5,1,8,2,5.000000e-02,6.703200e-02,1.340640e+00,76,50,3.107398e-01,3.667141e-01,3.333838e-02,8.333706e-02,7.546041e-06,4.000000e-01,34,0,2,1,1,2,3,2.837908e-01,1,1,Right,Left,Right,Vertical,Foil primed,Right,None,Main study,C
5,1,8,2,5.000000e-02,6.703200e-02,1.340640e+00,76,40,3.109260e-01,3.666788e-01,3.334231e-02,8.333374e-02,7.546041e-06,4.000000e-01,34,1,2,0,0,2,3,4.338053e-01,0,1,Left,Right,Left,Vertical,Foil primed,Left,None,Main study,C
5,1,8,2,5.000000e-02,6.703200e-02,1.340640e+00,76,45,3.106758e-01,3.667002e-01,3.332450e-02,8.334339e-02,7.546041e-06,4.000000e-01,34,0,2,1,1,2,3,4.337875e-01,1,1,Right,Left,Right,Vertical,Foil primed,Right,None,Main study,C
5,1,8,2,5.000000e-02,6.703200e-02,1.340640e+00,76,45,3.107144e-01,2.666799e-01,1.333499e-01,8.336573e-02,7.848023e-06,4.000000e-01,134,0,3,0,0,2,3,5.255245e-01,1,0,Right,Left,Left,Vertical,Target primed,Left,None,Main study,C
5,1,8,2,5.000000e-02,6.703200e-02,1.340640e+00,76,45,3.187613e-01,3.667095e-01,3.332420e-02,8.334068e-02,7.848023e-06,4.000000e-01,34,0,3,0,0,2,3,4.420827e-01,1,0,Right,Left,Left,Vertical,Target primed,Left,None,Main study,C
5,1,8,2,5.000000e-02,6.703200e-02,1.340640e+00,76,35,3.105720e-01,2.666962e-01,1.333593e-01,8.333404e-02,7.848023e-06,4.000000e-01,134,1,3,1,1,2,3,2.420875e-01,0,0,Left,Right,Right,Vertical,Target primed,Right,None,Main study,C
5,1,8,2,5.000000e-02,6.703200e-02,1.340640e+00,76,40,3.189116e-01,3.916995e-01,8.338746e-03,8.331683e-02,7.546041e-06,4.000000e-01,8,0,2,1,1,2,3,5.920785e-01,1,1,Right,Left,Right,Vertical,Foil primed,Right,None,Main study,C
5,1,8,2,5.000000e-02,6.703200e-02,1.340640e+00,76,50,3.188105e-01,3.917125e-01,8.348405e-03,8.330989e-02,7.847790e-06,4.000000e-01,8,1,3,1,1,2,3,4.421492e-01,1,1,Right,Right,Right,Vertical,Target primed,Right,None,Main study,C
5,1,8,2,5.000000e-02,6.703200e-02,1.340640e+00,76,35,3.106426e-01,3.916844e-01,8.353235e-03,8.334007e-02,7.848023e-06,4.000000e-01,8,0,2,1,1,2,3,5.171303e-01,1,1,Right,Left,Right,Vertical,Foil primed,Right,None,Main study,C
5,1,8,2,5.000000e-02,6.703200e-02,1.340640e+00,76,55,3.106420e-01,2.666736e-01,1.333593e-01,8.332921e-02,7.847790e-06,4.000000e-01,134,0,2,1,1,2,3,5.004645e-01,1,1,Right,Left,Right,Vertical,Foil primed,Right,None,Main study,C
5,1,8,2,5.000000e-02,6.703200e-02,1.340640e+00,76,35,3.187915e-01,3.916865e-01,8.339350e-03,8.335004e-02,7.546041e-06,4.000000e-01,8,0,3,0,0,2,3,5.921388e-01,1,0,Right,Left,Left,Vertical,Target primed,Left,None,Main study,C
5,1,8,2,5.000000e-02,6.703200e-02,1.340640e+00,76,50,3.188935e-01,2.666878e-01,1.333520e-01,8.332257e-02,7.847790e-06,4.000000e-01,134,1,2,0,0,2,3,4.838263e-01,0,1,Left,Right,Left,Vertical,Foil primed,Left,None,Main study,C
5,1,8,2,5.000000e-02,6.703200e-02,1.340640e+00,76,55,3.189400e-01,3.917107e-01,8.323352e-03,8.332498e-02,7.847790e-06,4.000000e-01,8,0,2,1,1,2,3,8.171754e-01,0,0,Left,Left,Right,Vertical,Foil primed,Right,None,Main study,C
5,1,8,2,5.000000e-02,6.703200e-02,1.340640e+00,76,55,3.186261e-01,3.916935e-01,8.335426e-03,8.333645e-02,7.546274e-06,4.000000e-01,8,1,2,0,0,2,3,9.088515e-01,1,0,Right,Right,Left,Vertical,Foil primed,Left,None,Main study,C
5,1,8,2,5.000000e-02,6.703200e-02,1.340640e+00,76,45,3.184957e-01,3.916959e-01,8.313693e-03,8.333434e-02,7.848023e-06,4.000000e-01,8,1,3,1,1,2,3,5.671495e-01,1,1,Right,Right,Right,Vertical,Target primed,Right,None,Main study,C
5,1,8,2,5.000000e-02,6.703200e-02,1.340640e+00,76,55,3.189029e-01,2.666908e-01,1.333306e-01,8.336966e-02,2.505304e-05,4.000000e-01,134,0,2,1,1,2,3,6.087747e-01,1,1,Right,Left,Right,Vertical,Foil primed,Right,None,Main study,C
5,1,8,2,5.000000e-02,6.703200e-02,1.340640e+00,76,40,3.187713e-01,3.917119e-01,8.338444e-03,8.334853e-02,7.546274e-06,4.000000e-01,8,0,2,1,1,2,3,4.421329e-01,1,1,Right,Left,Right,Vertical,Foil primed,Right,None,Main study,C
5,1,8,2,5.000000e-02,6.703200e-02,1.340640e+00,76,35,3.106498e-01,2.667496e-01,1.332911e-01,8.335486e-02,7.244293e-06,4.000000e-01,134,0,2,1,1,2,3,5.088045e-01,1,1,Right,Left,Right,Vertical,Foil primed,Right,None,Main study,C
5,1,8,2,5.000000e-02,6.703200e-02,1.340640e+00,76,50,3.188754e-01,2.666868e-01,1.333692e-01,8.331442e-02,7.848023e-06,4.000000e-01,134,1,2,0,0,2,3,5.338044e-01,0,1,Left,Right,Left,Vertical,Foil primed,Left,None,Main study,C
5,1,8,2,5.000000e-02,6.703200e-02,1.340640e+00,76,35,3.187746e-01,3.916687e-01,8.333011e-03,8.337177e-02,1.690327e-05,4.000000e-01,8,0,2,1,1,2,3,5.504400e-01,0,0,Left,Left,Right,Vertical,Foil primed,Right,None,Main study,C
5,1,8,2,5.000000e-02,6.703200e-02,1.340640e+00,76,45,3.107117e-01,3.916808e-01,8.358366e-03,8.330657e-02,7.847790e-06,4.000000e-01,8,1,2,0,0,2,3,3.921239e-01,0,1,Left,Right,Left,Vertical,Foil primed,Left,None,Main study,C
5,1,8,2,5.000000e-02,6.703200e-02,1.340640e+00,76,35,3.106073e-01,2.666724e-01,1.333538e-01,8.333162e-02,7.848023e-06,4.000000e-01,134,1,3,1,1,2,3,6.504799e-01,0,0,Left,Right,Right,Vertical,Target primed,Right,None,Main study,C
5,1,8,2,5.000000e-02,6.703200e-02,1.340640e+00,76,40,3.188325e-01,2.666491e-01,1.333858e-01,8.330144e-02,7.546274e-06,4.000000e-01,134,0,2,1,1,2,3,5.755054e-01,1,1,Right,Left,Right,Vertical,Foil primed,Right,None,Main study,C
5,1,8,2,5.000000e-02,6.703200e-02,1.340640e+00,76,40,3.188368e-01,3.667165e-01,3.332118e-02,8.335728e-02,7.244293e-06,4.000000e-01,34,1,2,0,0,2,3,4.754480e-01,0,1,Left,Right,Left,Vertical,Foil primed,Left,None,Main study,C
5,1,8,2,5.000000e-02,6.703200e-02,1.340640e+00,76,55,3.106287e-01,3.917062e-01,8.331200e-03,8.331925e-02,7.546041e-06,4.000000e-01,8,0,2,1,1,2,3,3.087844e-01,1,1,Right,Left,Right,Vertical,Foil primed,Right,None,Main study,C
5,1,8,2,5.000000e-02,6.703200e-02,1.340640e+00,76,55,3.107805e-01,3.667177e-01,3.333838e-02,8.333736e-02,7.546041e-06,4.000000e-01,34,1,2,0,0,2,3,4.171492e-01,0,1,Left,Right,Left,Vertical,Foil primed,Left,None,Main study,C
5,1,8,2,5.000000e-02,6.703200e-02,1.340640e+00,76,35,3.106003e-01,3.667044e-01,3.333537e-02,8.333736e-02,7.546041e-06,4.000000e-01,34,0,3,0,0,2,3,3.337901e-01,0,1,Left,Left,Left,Vertical,Target primed,Left,None,Main study,C
5,1,8,2,5.000000e-02,6.703200e-02,1.340640e+00,76,45,3.108210e-01,2.666875e-01,1.333650e-01,8.333072e-02,7.546274e-06,4.000000e-01,134,1,2,0,0,2,3,4.004515e-01,0,1,Left,Right,Left,Vertical,Foil primed,Left,None,Main study,C
5,1,8,2,5.000000e-02,6.703200e-02,1.340640e+00,76,45,3.105294e-01,2.666917e-01,1.333324e-01,8.333736e-02,7.848023e-06,4.000000e-01,134,0,3,0,0,2,3,5.421577e-01,0,1,Left,Left,Left,Vertical,Target primed,Left,None,Main study,C
5,1,8,2,5.000000e-02,6.703200e-02,1.340640e+00,76,45,3.189315e-01,2.666881e-01,1.333487e-01,8.333917e-02,7.847790e-06,4.000000e-01,134,0,2,1,1,2,3,4.921161e-01,1,1,Right,Left,Right,Vertical,Foil primed,Right,None,Main study,C
5,1,8,2,5.000000e-02,6.703200e-02,1.340640e+00,76,50,3.189246e-01,3.666869e-01,3.333778e-02,8.335758e-02,7.546041e-06,4.000000e-01,34,1,2,0,0,2,3,3.254384e-01,0,1,Left,Right,Left,Vertical,Foil primed,Left,None,Main study,C
5,1,8,2,5.000000e-02,6.703200e-02,1.340640e+00,76,40,3.106966e-01,2.666539e-01,1.333641e-01,8.332136e-02,7.848023e-06,4.000000e-01,134,0,2,1,1,2,3,2.921227e-01,1,1,Right,Left,Right,Vertical,Foil primed,Right,None,Main study,C
5,1,8,2,5.000000e-02,6.703200e-02,1.340640e+00,76,45,3.106704e-01,3.666999e-01,3.333929e-02,8.333645e-02,7.546041e-06,4.000000e-01,34,1,3,1,1,2,3,4.587986e-01,0,0,Left,Right,Right,Vertical,Target primed,Right,None,Main study,C
5,1,8,2,5.000000e-02,6.703200e-02,1.340640e+00,76,35,3.106124e-01,3.666960e-01,3.334261e-02,8.335034e-02,8.149771e-06,4.000000e-01,34,0,2,1,1,2,3,7.338218e-01,0,0,Left,Left,Right,Vertical,Foil primed,Right,None,Main study,C
5,1,8,2,5.000000e-02,6.703200e-02,1.340640e+00,76,50,3.186925e-01,2.666938e-01,1.333481e-01,8.333796e-02,7.546041e-06,4.000000e-01,134,0,3,0,0,2,3,9.505154e-01,1,0,Right,Left,Left,Vertical,Target primed,Left,None,Main study,C
5,1,8,2,5.000000e-02,6.703200e-02,1.340640e+00,76,35,3.183928e-01,3.916977e-01,8.337237e-03,8.333826e-02,7.546274e-06,4.000000e-01,8,1,3,1,1,2,3,7.338528e-01,0,0,Left,Right,Right,Vertical,Target primed,Right,None,Main study,C
5,1,9,2,5.000000e-02,6.703200e-02,1.340640e+00,76,40,3.166408e-01,3.667171e-01,3.333174e-02,8.333736e-02,7.546041e-06,4.000000e-01,34,1,3,1,1,2,3,8.918432e-01,1,1,Right,Right,Right,Vertical,Target primed,Right,None,Main study,C
5,1,9,2,5.000000e-02,6.703200e-02,1.340640e+00,76,45,3.187314e-01,2.666715e-01,1.333665e-01,8.335305e-02,7.546041e-06,4.000000e-01,134,0,3,0,0,2,3,1.208865e+00,0,1,Left,Left,Left,Vertical,Target primed,Left,None,Main study,C
5,1,9,2,5.000000e-02,6.703200e-02,1.340640e+00,76,45,3.183934e-01,3.916669e-01,8.360177e-03,8.331321e-02,7.848023e-06,4.000000e-01,8,0,2,1,1,2,3,4.338343e-01,1,1,Right,Left,Right,Vertical,Foil primed,Right,None,Main study,C
5,1,9,2,5.000000e-02,6.703200e-02,1.340640e+00,76,45,3.188941e-01,3.917194e-01,8.316410e-03,8.334611e-02,7.848023e-06,4.000000e-01,8,0,2,1,1,2,3,4.254602e-01,1,1,Right,Left,Right,Vertical,Foil primed,Right,None,Main study,C
5,1,9,2,5.000000e-02,6.703200e-02,1.340640e+00,76,35,3.106275e-01,2.667050e-01,1.333469e-01,8.332528e-02,7.546041e-06,4.000000e-01,134,1,3,1,1,2,3,7.254884e-01,0,0,Left,Right,Right,Vertical,Target primed,Right,None,Main study,C
5,1,9,2,5.000000e-02,6.703200e-02,1.340640e+00,76,35,3.187689e-01,3.917191e-01,8.323654e-03,8.333223e-02,7.546041e-06,4.000000e-01,8,1,2,0,0,2,3,4.671367e-01,0,1,Left,Right,Left,Vertical,Foil primed,Left,None,Main study,C
5,1,9,2,5.000000e-02,6.703200e-02,1.340640e+00,76,55,3.189448e-01,3.666718e-01,3.333929e-02,8.333525e-02,7.546041e-06,4.000000e-01,34,0,2,1,1,2,3,3.588184e-01,1,1,Right,Left,Right,Vertical,Foil primed,Right,None,Main study,C
5,1,9,2,5.000000e-02,6.703200e-02,1.340640e+00,76,40,3.106169e-01,3.666884e-01,3.335348e-02,8.333977e-02,7.244060e-06,4.000000e-01,34,1,3,1,1,2,3,4.171054e-01,0,0,Left,Right,Right,Vertical,Target primed,Right,None,Main study,C
5,1,9,2,5.000000e-02,6.703200e-02,1.340640e+00,76,50,3.107141e-01,3.916875e-01,8.336633e-03,8.335456e-02,7.848023e-06,4.000000e-01,8,1,3,1,1,2,3,5.088431e-01,0,0,Left,Right,Right,Vertical,Target primed,Right,None,Main study,C
5,1,9,2,5.000000e-02,6.703200e-02,1.340640e+00,76,45,3.188419e-01,3.917161e-01,8.357461e-03,8.331744e-02,7.546041e-06,4.000000e-01,8,0,2,1,1,2,3,6.754738e-01,0,0,Left,Left,Right,Vertical,Foil primed,Right,None,Main study,C
5,1,9,2,5.000000e-02,6.703200e-02,1.340640e+00,76,35,3.185856e-01,2.666878e-01,1.333596e-01,8.331593e-02,7.546041e-06,4.000000e-01,134,0,2,1,1,2,3,9.338496e-01,0,0,Left,Left,Right,Vertical,Foil primed,Right,None,Main study,C
5,1,9,2,5.000000e-02,6.703200e-02,1.340640e+00,76,50,3.184519e-01,3.666833e-01,3.334744e-02,8.334309e-02,7.546041e-06,4.000000e-01,34,1,3,1,1,2,3,9.588559e-01,1,1,Right,Right,Right,Vertical,Target primed,Right,None,Main study,C
5,1,9,2,5.000000e-02,6.703200e-02,1.340640e+00,76,35,3.184673e-01,3.917152e-01,8.329691e-03,8.332257e-02,7.546041e-06,4.000000e-01,8,1,3,1,1,2,3,6.588171e-01,0,0,Left,Right,Right,Vertical,Target primed,Right,None,Main study,C
5,1,9,2,5.000000e-02,6.703200e-02,1.340640e+00,76,55,3.187290e-01,2.666896e-01,1.333499e-01,8.333766e-02,7.244293e-06,4.000000e-01,134,1,2,0,0,2,3,8.338013e-01,0,1,Left,Right,Left,Vertical,Foil primed,Left,None,Main study,C
5,1,9,2,5.000000e-02,6.703200e-02,1.340640e+00,76,55,3.184746e-01,2.666787e-01,1.333493e-01,8.335728e-02,7.546274e-06,4.000000e-01,134,0,3,0,0,2,3,1.042163e+00,0,1,Left,Left,Left,Vertical,Target primed,Left,None,Main study,C
5,1,9,2,5.000000e-02,6.703200e-02,1.340640e+00,76,45,3.185014e-01,3.917125e-01,8.327880e-03,8.334460e-02,7.244060e-06,4.000000e-01,8,0,2,1,1,2,3,6.588404e-01,1,1,Right,Left,Right,Vertical,Foil primed,Right,None,Main study,C
